{
    "resourceType":"Bundle",
    "id":"2016-05-08T09:12:18-04:00",
    "type":"transaction",
    "entry":[
        {
            "fullUrl":"http://vha.edmondsci.com:8080/hapi15/baseDstu3/Patient/sisansarahId",
            "resource":{
                "resourceType":"Patient",
                "id":"sisansarahId",
                "identifier":[
                    {
                        "type":{
                            "coding":[
                                {
                                    "system":"http://hl7.org/fhir/v2/0203",
                                    "code":"MR"
                                }
                            ]
                        },
                        "system":"urn:oid:1.2.3.4.5.6.7.8.10",
                        "value":"sisansarahId"
                    }
                ],
                "name":[
                    {
                        "family":[
                            "Sisansarah Lorianthah"
                        ],
                        "given":[
                            "Piggy"
                        ]
                    }
                ]
            },
            "request":{
                "method":"PUT",
                "url":"Patient/1-sisansarahId"
            }
        },
        {
            "fullUrl":"http://vha.edmondsci.com:8080/hapi15/baseDstu3/Device/ecde3d4e58532d31",
            "resource":{
                "resourceType":"Device",
                "id":"ecde3d4e58532d31",
                "identifier":[
                    {
                        "system":"urn:iso:std:iso:11073:10101",
                        "value":"ecde3d4e58532d31"
                    }
                ],
                "type":{
                    "coding":[
                        {
                            "system":"urn:iso:std:iso:11073:10101",
                            "code":"531981",
                            "display":"MDC_MOC_VMS_MDS_AHD"
                        }
                    ]
                }
            },
            "request":{
                "method":"PUT",
                "url":"Device/1-ecde3d4e58532d31"
            }
        },
        {
            "fullUrl":"http://vha.edmondsci.com:8080/hapi15/baseDstu3/DeviceComponent/AHD-ecde3d4e58532d31",
            "resource":{
                "resourceType":"DeviceComponent",
                "id":"AHD-ecde3d4e58532d31",
                "type":{
                    "coding":[
                        {
                            "system":"urn:iso:std:iso:11073:10101",
                            "code":"531981",
                            "display":"MDC_MOC_VMS_MDS_AHD"
                        }
                    ]
                },
                "identifier":{
                    "system":"urn:iso:std:iso:11073:10101",
                    "value":"ecde3d4e58532d31"
                },
                "lastSystemChange":"2016-05-08T09:12:18-04:00",
                "source":{
                    "reference":"Device/ecde3d4e58532d31"
                }
            },
            "request":{
                "method":"PUT",
                "url":"DeviceComponent/1-AHD-ecde3d4e58532d31"
            }
        },
        {
            "fullUrl":"http://vha.edmondsci.com:8080/hapi15/baseDstu3/Device/001c050100651437",
            "resource":{
                "resourceType":"Device",
                "id":"001c050100651437",
                "identifier":[
                    {
                        "use":"official",
                        "system":"urn:iso:std:iso:11073:10101",
                        "value":"001c050100651437",
                        "assigner":{
                            "reference":"IEEE"
                        }
                    },
                    {
                        "use":"official",
                        "system":"urn:iso:std:iso:11073:10101",
                        "value":"00:1C:05:65:14:37",
                        "assigner":{
                            "reference":"Bluetooth SIG"
                        }
                    }
                ],
                "type":{
                    "coding":[
                        {
                            "system":"urn:iso:std:iso:11073:10101",
                            "code":"528388",
                            "display":"MDC_DEV_SPEC_PROFILE_PULS_OXIM"
                        }
                    ]
                },
                "manufacturer":"Nonin Medical, Inc.",
                "model":"Model 9560"
            },
            "request":{
                "method":"PUT",
                "url":"Device/1-001c050100651437"
            }
        },
        {
            "fullUrl":"http://vha.edmondsci.com:8080/hapi15/baseDstu3/DeviceComponent/Agent-001c050100651437",
            "resource":{
                "resourceType":"DeviceComponent",
                "id":"Agent-001c050100651437",
                "type":{
                    "coding":[
                        {
                            "system":"urn:iso:std:iso:11073:10101",
                            "code":"65573",
                            "display":"MDC_MOC_VMS_MDS_SIMP"
                        }
                    ]
                },
                "identifier":{
                    "use":"official",
                    "system":"urn:iso:std:iso:11073:10101",
                    "value":"001c050100651437",
                    "assigner":{
                        "reference":"IEEE"
                    }
                },
                "lastSystemChange":"2016-05-08T09:12:18-04:00",
                "source":{
                    "reference":"Device/001c050100651437"
                },
                "productionSpecification":[
                    {
                        "specType":{
                            "coding":[
                                {
                                    "system":"urn:iso:std:iso:11073:10101",
                                    "code":"531972",
                                    "display":"MDC_ID_PROD_SPEC_SERIAL"
                                }
                            ]
                        },
                        "productionSpec":"0100651437"
                    },
                   {
                        "specType":{
                            "coding":[
                                {
                                    "system":"urn:iso:std:iso:11073:10101",
                                    "code":"531976",
                                    "display":"MDC_ID_PROD_SPEC_FW"
                                }
                            ]
                        },
                        "productionSpec":"0.99"
                    }
                ]
            },
            "request":{
                "method":"PUT",
                "url":"DeviceComponent/1-Agent-001c050100651437"
            }
        },
        {
            "fullUrl":"http://vha.edmondsci.com:8080/hapi15/baseDstu3/Observation/OBR_1:1.0.0.1",
            "resource":{
                "resourceType":"Observation",
                "id":"OBR_1:1.0.0.1",
                "status":"final",
                "code":{
                    "coding":[
                        {
                            "system":"urn:iso:std:iso:11073:10101",
                            "code":"150456",
                            "display":"MDC_PULS_OXIM_SAT_O2"
                        },
                        {
                            "system":"http://hl7.org/fhir/data-types",
                            "code":"Quantity",
                            "display":"Value is a Numeric Data Type integer"
                        }
                    ]
                },
                "subject":{
                    "reference":"Patient/sisansarahId"
                },
                "effectiveDateTime":"2016-05-08T09:12:04.441-04:00",
                "performer":[
                    {
                        "reference":"Patient/sisansarahId"
                    }
                ],
                "valueQuantity":{
                    "value":98,
                    "unit":"%25",
                    "system":"urn:iso:std:iso:11073:10101",
                    "code":"262688"
                },
                "device":{
                    "reference":"Device/001c050100651437"
                },
                "component":[
                   {
                        "code":{
                            "coding":[
                                {
                                    "system":"urn:iso:std:iso:11073:10101",
                                    "code":"68193",
                                    "display":"MDC_ATTR_SUPPLEMENTAL_TYPES"
                                },
                                {
                                    "code":"code",
                                    "display":"Value is an MDC code"
                                }
                            ]
                        },
                        "valueCodeableConcept":{
                            "coding":[
                                {
                                    "system":"urn:iso:std:iso:11073:10101",
                                    "code":"150588",
                                    "display":"MDC_MODALITY_SPOT"
                                }
                            ]
                        }
                    }
                ]
            },
            "request":{
                "method":"POST",
                "url":"Observation/1-OBR_1:1.0.0.1"
            }
        },
        {
            "fullUrl":"http://vha.edmondsci.com:8080/hapi15/baseDstu3/Observation/OBR_1:1.0.0.2",
            "resource":{
                "resourceType":"Observation",
                "id":"OBR_1:1.0.0.2",
                "status":"final",
                "code":{
                    "coding":[
                        {
                            "system":"urn:iso:std:iso:11073:10101",
                            "code":"149530",
                            "display":"MDC_PULS_OXIM_PULS_RATE"
                        },
                        {
                            "system":"http://hl7.org/fhir/data-types",
                            "code":"Quantity",
                            "display":"Value is a Numeric Data Type integer"
                        }
                    ]
                },
                "subject":{
                    "reference":"Patient/sisansarahId"
                },
                "effectiveDateTime":"2016-05-08T09:12:04.441-04:00",
                "performer":[
                    {
                        "reference":"Patient/sisansarahId"
                    }
                ],
                "valueQuantity":{
                    "value":61,
                    "unit":"bpm",
                    "system":"urn:iso:std:iso:11073:10101",
                    "code":"264864"
                },
                "device":{
                    "reference":"Device/001c050100651437"
                },
                "component":[
                    {
                        "code":{
                            "coding":[
                                {
                                    "system":"urn:iso:std:iso:11073:10101",
                                    "code":"68193",
                                    "display":"MDC_ATTR_SUPPLEMENTAL_TYPES"
                                },
                                {
                                    "code":"code",
                                    "display":"Value is an MDC code"
                                }
                            ]
                        },
                        "valueCodeableConcept":{
                            "coding":[
                                {
                                    "system":"urn:iso:std:iso:11073:10101",
                                    "code":"150588",
                                    "display":"MDC_MODALITY_SPOT"
                                }
                            ]
                        }
                    }
                ]
            },
            "request":{
                "method":"POST",
                "url":"Observation/1-OBR_1:1.0.0.2"
            }
        }
    ]
}