{
  "resourceType": "Bundle",
  "id": "NZ-IPS-20220918144705",
  "language": "en-NZ",
  "identifier": {
    "system": "urn:oid:2.16.724.4.8.10.200.10",
    "value": "d19dc44e-9add-41e3-a518-3baddb3a1b05"
  },
  "type": "document",
  "timestamp": "2022-09-18T14:47:05.9451305+00:00",
  "entry": [
    {
      "fullUrl": "https://terminz.azurewebsites.net/fhir/Composition/30b1b7ed-1e06-4d7f-baa5-94b519756be5",
      "resource": {
        "resourceType": "Composition",
        "id": "30b1b7ed-1e06-4d7f-baa5-94b519756be5",
        "meta": {
          "versionId": "1"
        },
        "language": "en-NZ",
        "text": {
          "status": "generated",
          "div": "<div xmlns='http://www.w3.org/1999/xhtml' lang='en-NZ' xml:lang='en-NZ'>International Patient Summary for PETER KEITH JONES</div>"
        },
        "identifier": {
          "system": "urn:oid:2.16.840.1.113883.2.18.7.2",
          "value": "d19dc44e-9add-41e3-a518-3baddb3a1b05"
        },
        "status": "final",
        "type": {
          "coding": [
            {
              "system": "http://loinc.org",
              "code": "60591-5",
              "display": "Patient summary Document"
            }
          ]
        },
        "subject": {
          "reference": "Patient/NNJ9186"
        },
        "date": "2022-09-13",
        "author": [
          {
            "reference": "Organization/5f1d2fc6-478b-4bdb-8122-c0736bdca25d"
          }
        ],
        "title": "International Patient Summary",
        "confidentiality": "N",
        "attester": [
          {
            "mode": "professional",
            "time": "2022-09-13",
            "party": {
              "reference": "PractitionerRole/1727e976-238d-4a75-b648-01143b62e573"
            }
          }
        ],
        "custodian": {
          "reference": "Organization/b7e488fa-65e5-4b70-87b1-9fa4c02f31a5"
        },
        "relatesTo": [
          {
            "code": "transforms",
            "targetIdentifier": {
              "system": "urn:oid:2.16.840.1.113883.2.18.7.2",
              "value": "d19dc44e-9add-41e3-a518-3baddb3a1b05"
            }
          }
        ],
        "event": [
          {
            "code": [
              {
                "coding": [
                  {
                    "system": "http://terminology.hl7.org/CodeSystem/v3-ActClass",
                    "code": "PCPR"
                  }
                ]
              }
            ],
            "period": {
              "end": "2022-09-13"
            }
          }
        ],
        "section": [
          {
            "title": "Allergies and Intolerances",
            "code": {
              "coding": [
                {
                  "system": "http://loinc.org",
                  "code": "48765-2",
                  "display": "Allergies and adverse reactions Document"
                }
              ]
            },
            "text": {
              "status": "generated",
              "div": "<div xmlns='http://www.w3.org/1999/xhtml' lang='en-NZ' xml:lang='en-NZ'>There is no information available regarding the subject's allergy conditions.</div>"
            },
            "entry": [
              {
                "reference": "AllergyIntolerance/9adfa564-8def-4010-b75f-6a7075fc5dd1"
              }
            ]
          },
          {
            "title": "Problem List",
            "code": {
              "coding": [
                {
                  "system": "http://loinc.org",
                  "code": "11450-4",
                  "display": "Problem list - Reported"
                }
              ]
            },
            "text": {
              "status": "generated",
              "div": "<div xmlns='http://www.w3.org/1999/xhtml' xml:lang='en-NZ'><table xmlns=\"http://www.w3.org/1999/xhtml\">  <thead>    <tr>      <th>Problem</th>      <th>Date of Onset</th>      <th>Date of Resolution</th>      <th>Status</th>      <th>Age Onset</th>      <th>Confidence</th>      <th>Severity</th>      <th>Sequelae</th>      <th>Recorded By</th>      <th>Recorded On</th>      <th>Comments</th>                </tr>  </thead>  <tbody>    <tr>      <td>Hypertension</td>                  <td>Active</td>                              <td>Hashira COORAY</td>      <td>25/05/2016</td>            <td>               </td>          </tr>    <tr>      <td>COVID-19 detected</td>                  <td>Active</td>                              <td>Carla DU PLESSIS</td>      <td>25/03/2022</td>            <td>               </td>          </tr>    <tr>      <td>Gout (disorder)</td>                  <td>Active</td>                              <td>Rachna SAMAL</td>      <td>01/10/2020</td>                      </tr>  </tbody></table>\r\n    </div>"
            },
            "entry": [
              {
                "reference": "Condition/c9dc1880-d8b8-4175-b40e-671b3797228c"
              },
              {
                "reference": "Condition/6fd36c04-9f95-4933-b706-8d8cd08751ba"
              },
              {
                "reference": "Condition/741d5e32-04f4-4c55-a1ee-e811d42d81f2"
              }
            ]
          },
          {
            "title": "Medication Summary",
            "code": {
              "coding": [
                {
                  "system": "http://loinc.org",
                  "code": "10160-0",
                  "display": "History of Medication use Narrative"
                }
              ]
            },
            "text": {
              "status": "generated",
              "div": "<div xmlns='http://www.w3.org/1999/xhtml' xml:lang='en-NZ'><table xmlns=\"http://www.w3.org/1999/xhtml\">  <thead>    <tr>      <th>Drug</th>      <th>Qty/Freq</th>      <th>Route</th>      <th>Instructions</th>      <th>Status</th>      <th>Date(s)</th>      <th>Supply/Admin</th>      <th>Notes</th>            <th>Encounter</th>    </tr>  </thead>  <tbody>    <tr>      <td>cilazapril 500 microgram tablet, 90</td>      <td>90 tablet / 0 x per day</td>      <td>Systemic</td>      <td>Take 1 daily</td>      <td>continued</td>      <td> Start: 26/08/2022... End: 26/08/2022</td>            <td>               </td>      <td>               </td>          </tr>    <tr>      <td>prednisone 1 mg tablet</td>      <td>100 tablet / 0 x per day</td>      <td>Oral</td>      <td>Take 4mg daily for 1/12 then reduce by 1mg by 1 month</td>      <td>continued</td>      <td> Start: 17/12/2021</td>            <td>               </td>      <td>               </td>          </tr>  </tbody></table>\r\n    </div>"
            },
            "entry": [
              {
                "reference": "MedicationStatement/04513216-2361-41e2-bfff-8730f223f2b6"
              },
              {
                "reference": "Medication/97157768-C8F1-4A41-82B2-F26390BA0C20"
              },
              {
                "reference": "MedicationStatement/4dc67cc2-d7a9-4e2e-b130-c98d3879ea7c"
              },
              {
                "reference": "Medication/9F130F5E-E59F-4B97-A98E-21A73C78A6F7"
              }
            ]
          },
          {
            "title": "Immunizations",
            "code": {
              "coding": [
                {
                  "system": "http://loinc.org",
                  "code": "11369-6",
                  "display": "History of Immunization Narrative"
                }
              ]
            },
            "text": {
              "status": "generated",
              "div": "<div xmlns='http://www.w3.org/1999/xhtml' xml:lang='en-NZ'><table xmlns=\"http://www.w3.org/1999/xhtml\">  <thead>    <tr>      <th>Vaccine</th>      <th>Date</th>      <th>Seq</th>      <th>Route</th>      <th>Site</th>      <th>Indication</th>      <th>Status</th>                </tr>  </thead>  <tbody>    <tr>      <td>Pfizer/BioNtech</td>      <td>01/08/2022</td>      <td>4</td>      <td>Intramuscular</td>      <td>Left Deltoid</td>      <td>At risk, no previous history</td>      <td>Given Elsewhere NZ</td>      <td>               </td>          </tr>    <tr>      <td>Zoster</td>      <td>13/07/2022</td>      <td>1</td>      <td>Intramuscular</td>      <td>Left Arm</td>      <td>65 years</td>      <td>Given</td>      <td>               </td>          </tr>    <tr>      <td>Influenza</td>      <td>01/06/2022</td>      <td>1</td>      <td>Intramuscular</td>      <td>Left Deltoid</td>      <td>Over 65 years (Influenza)</td>      <td>Given</td>      <td>               </td>          </tr>    <tr>      <td>Pfizer/BioNtech</td>      <td>13/01/2022</td>      <td>3</td>      <td>Intramuscular</td>            <td>At risk, no previous history</td>      <td>Given Elsewhere NZ</td>      <td>               </td>          </tr>    <tr>      <td>Pfizer/BioNtech</td>      <td>27/08/2021</td>      <td>2</td>      <td>Intramuscular</td>      <td>Left Deltoid</td>      <td>At risk, no previous history</td>      <td>Given Elsewhere NZ</td>      <td>               </td>          </tr>    <tr>      <td>Pfizer/BioNtech</td>      <td>05/08/2021</td>      <td>1</td>      <td>Intramuscular</td>      <td>Left Deltoid</td>      <td>At risk, no previous history</td>      <td>Given Elsewhere NZ</td>      <td>               </td>          </tr>    <tr>      <td>Influenza</td>      <td>31/05/2021</td>      <td>1</td>      <td>Intramuscular</td>      <td>Left Arm</td>      <td>Eligible condition (Influenza)</td>      <td>Given</td>      <td>               </td>          </tr>  </tbody></table>\r\n    </div>"
            },
            "entry": [
              {
                "reference": "Immunization/56b21481-16ce-43ad-9444-e0b18b52aae3"
              },
              {
                "reference": "Immunization/ea94d00c-4a24-4fa7-9070-7942e05e6c75"
              },
              {
                "reference": "Immunization/0d943ea5-cb6f-4246-9708-bfd231aff416"
              },
              {
                "reference": "Immunization/357698b5-55de-4ebd-bd3e-f2415a9d58ac"
              },
              {
                "reference": "Immunization/2b40a80a-fe2e-49ed-8d43-71e3564b5b39"
              },
              {
                "reference": "Immunization/dca795c1-433a-4044-9681-a417b7970dfc"
              },
              {
                "reference": "Immunization/af3a78e8-e683-49fa-90b8-12d63cbb0ce3"
              }
            ]
          },
          {
            "title": "Results",
            "code": {
              "coding": [
                {
                  "system": "http://loinc.org",
                  "code": "30954-2",
                  "display": "Relevant diagnostic tests/laboratory data Narrative"
                }
              ]
            },
            "text": {
              "status": "generated",
              "div": "<div xmlns='http://www.w3.org/1999/xhtml' xml:lang='en-NZ'><table>  <tbody>    <tr>      <th>Result Group:</th>      <td>CBC</td>      <th>Result Date:</th>      <td>10 Jan 2022 16:05</td>      <th>Result Status:</th>      <td>completed</td>    </tr>  </tbody></table><table xmlns=\"http://www.w3.org/1999/xhtml\">  <thead>    <tr>      <th>Result Name</th>      <th>Value</th>      <th>Reference Range</th>      <th>Abnormal Indicator</th>      <th>Comments</th>                </tr>  </thead>  <tbody>    <tr>      <td>ESR</td>      <td>10 mm/h</td>      <td>0-15</td>                            </tr>    <tr>      <td>Differential: Monocyte</td>      <td>0.4 x10E9/L</td>      <td>0.2-1.0</td>                            </tr>    <tr>      <td>Differential: Eosinophil</td>      <td>0.1 x10E9/L</td>      <td>0.0-0.5</td>                            </tr>    <tr>      <td>Differential: Neut Seg</td>      <td>6.3 x10E9/L</td>      <td>1.9-7.5</td>                            </tr>    <tr>      <td>MCH</td>      <td>31 pg</td>      <td>27-33</td>                            </tr>    <tr>      <td>MCV</td>      <td>91 fL</td>      <td>80-99</td>                            </tr>    <tr>      <td>Differential: Lymphocyte</td>      <td>1.1 x10E9/L</td>      <td>1.0-4.0</td>                            </tr>    <tr>      <td>WBC</td>      <td>7.9 x10E9/L</td>      <td>4.0-11.0</td>                            </tr>    <tr>      <td>Differential: Basophil</td>      <td>0.1 x10E9/L</td>      <td>0-0.2</td>                            </tr>    <tr>      <td>HAEMOGLOBIN</td>      <td>137 g/L</td>      <td>130-175</td>                            </tr>    <tr>      <td>PLATELET COUNT</td>      <td>214 x10E9/L</td>      <td>150-400</td>                            </tr>    <tr>      <td>HCT</td>      <td>0.40 L/L</td>      <td>0.40-0.52</td>                            </tr>  </tbody></table><table>  <tbody>    <tr>      <th>Result Group:</th>      <td>CRP</td>      <th>Result Date:</th>      <td>10 Jan 2022 15:36</td>      <th>Result Status:</th>      <td>completed</td>    </tr>  </tbody></table><table xmlns=\"http://www.w3.org/1999/xhtml\">  <thead>    <tr>      <th>Result Name</th>      <th>Value</th>      <th>Reference Range</th>      <th>Abnormal Indicator</th>      <th>Comments</th>                </tr>  </thead>  <tbody>    <tr>      <td>CRP</td>      <td>0.4 mg/L</td>      <td>0-8</td>                            </tr>  </tbody></table><table>  <tbody>    <tr>      <th>Result Group:</th>      <td>GENERAL CHEM....</td>      <th>Result Date:</th>      <td>10 Jan 2022 15:36</td>      <th>Result Status:</th>      <td>completed</td>    </tr>  </tbody></table><table xmlns=\"http://www.w3.org/1999/xhtml\">  <thead>    <tr>      <th>Result Name</th>      <th>Value</th>      <th>Reference Range</th>      <th>Abnormal Indicator</th>      <th>Comments</th>                </tr>  </thead>  <tbody>    <tr>      <td>Uric Acid</td>      <td>0.39 mmol/L</td>      <td>0.23-0.42</td>            <td>The urate target level for gout management is &lt;0.36 mmol/L</td>                </tr>  </tbody></table><table>  <tbody>    <tr>      <th>Result Group:</th>      <td>Radiology X-RAY</td>      <th>Result Date:</th>      <td>29 Dec 2021 12:37</td>      <th>Result Status:</th>      <td>completed</td>    </tr>  </tbody></table><table xmlns=\"http://www.w3.org/1999/xhtml\">  <thead>    <tr>      <th>Result Name</th>      <th>Value</th>      <th>Reference Range</th>      <th>Abnormal Indicator</th>      <th>Comments</th>                </tr>  </thead>  <tbody>    <tr>      <td>Radiology X-RAY</td>      <td>This report is for Dr H. CoorayReferred ByDr H. CoorayX-RAY BOTH SHOULDERS 29122021 Reference 3294617 NHI NNJ9186IndicationBilateral shoulder pain initial relief with prednisone but now notresolving.FindingsMild degenerative changes in the AC joints bilaterally slightly moremarked on the left where there is subchondral sclerosis. Superiormarginal osteophyte formation bilaterally.Mild degenerative changes in the glenohumeral joints bilaterally withglenoid subchondral sclerosis joint spaces are well preserved.No other features of note on either side.CommentNon-specific degenerative changes on both sides with no plain filmevidence for a specific arthropathy.Radiologist Dr Barry Chatterton </td>      <td>NA</td>                            </tr>  </tbody></table><table>  <tbody>    <tr>      <th>Result Group:</th>      <td>CBC</td>      <th>Result Date:</th>      <td>21 Dec 2021 19:06</td>      <th>Result Status:</th>      <td>completed</td>    </tr>  </tbody></table><table xmlns=\"http://www.w3.org/1999/xhtml\">  <thead>    <tr>      <th>Result Name</th>      <th>Value</th>      <th>Reference Range</th>      <th>Abnormal Indicator</th>      <th>Comments</th>                </tr>  </thead>  <tbody>    <tr>      <td>MCH</td>      <td>31 pg</td>      <td>27-33</td>                            </tr>    <tr>      <td>HAEMOGLOBIN</td>      <td>141 g/L</td>      <td>130-175</td>                            </tr>    <tr>      <td>Differential: Neut Seg</td>      <td>6.8 x10E9/L</td>      <td>1.9-7.5</td>                            </tr>    <tr>      <td>Differential: Lymphocyte</td>      <td>1.3 x10E9/L</td>      <td>1.0-4.0</td>                            </tr>    <tr>      <td>MCV</td>      <td>92 fL</td>      <td>80-99</td>                            </tr>    <tr>      <td>Differential: Basophil</td>      <td>0.1 x10E9/L</td>      <td>0-0.2</td>                            </tr>    <tr>      <td>Differential: Monocyte</td>      <td>0.3 x10E9/L</td>      <td>0.2-1.0</td>                            </tr>    <tr>      <td>ESR</td>      <td>7 mm/h</td>      <td>0-15</td>                            </tr>    <tr>      <td>HCT</td>      <td>0.42 L/L</td>      <td>0.40-0.52</td>                            </tr>    <tr>      <td>Differential: Eosinophil</td>      <td>0.1 x10E9/L</td>      <td>0.0-0.5</td>                            </tr>    <tr>      <td>WBC</td>      <td>8.5 x10E9/L</td>      <td>4.0-11.0</td>                            </tr>    <tr>      <td>PLATELET COUNT</td>      <td>209 x10E9/L</td>      <td>150-400</td>                            </tr>  </tbody></table><table>  <tbody>    <tr>      <th>Result Group:</th>      <td>CRP</td>      <th>Result Date:</th>      <td>21 Dec 2021 18:06</td>      <th>Result Status:</th>      <td>completed</td>    </tr>  </tbody></table><table xmlns=\"http://www.w3.org/1999/xhtml\">  <thead>    <tr>      <th>Result Name</th>      <th>Value</th>      <th>Reference Range</th>      <th>Abnormal Indicator</th>      <th>Comments</th>                </tr>  </thead>  <tbody>    <tr>      <td>CRP</td>      <td>0.3 mg/L</td>      <td>0-8</td>                            </tr>  </tbody></table><table>  <tbody>    <tr>      <th>Result Group:</th>      <td>GENERAL CHEM....</td>      <th>Result Date:</th>      <td>21 Dec 2021 18:06</td>      <th>Result Status:</th>      <td>completed</td>    </tr>  </tbody></table><table xmlns=\"http://www.w3.org/1999/xhtml\">  <thead>    <tr>      <th>Result Name</th>      <th>Value</th>      <th>Reference Range</th>      <th>Abnormal Indicator</th>      <th>Comments</th>                </tr>  </thead>  <tbody>    <tr>      <td>Uric Acid</td>      <td>0.39 mmol/L</td>      <td>0.23-0.42</td>            <td>The urate target level for gout management is &lt;0.36 mmol/L</td>                </tr>  </tbody></table><table>  <tbody>    <tr>      <th>Result Group:</th>      <td>Screening FIT</td>      <th>Result Date:</th>      <td>10 Dec 2021 21:00</td>      <th>Result Status:</th>      <td>completed</td>    </tr>  </tbody></table><table xmlns=\"http://www.w3.org/1999/xhtml\">  <thead>    <tr>      <th>Result Name</th>      <th>Value</th>      <th>Reference Range</th>      <th>Abnormal Indicator</th>      <th>Comments</th>                </tr>  </thead>  <tbody>    <tr>      <td>Screening FIT</td>      <td>Negative </td>      <td>NA</td>            <td>This is a result from the National Bowel Screening Programme.</td>                </tr>  </tbody></table><table>  <tbody>    <tr>      <th>Result Group:</th>      <td>CBC</td>      <th>Result Date:</th>      <td>06 Dec 2021 16:35</td>      <th>Result Status:</th>      <td>completed</td>    </tr>  </tbody></table><table xmlns=\"http://www.w3.org/1999/xhtml\">  <thead>    <tr>      <th>Result Name</th>      <th>Value</th>      <th>Reference Range</th>      <th>Abnormal Indicator</th>      <th>Comments</th>                </tr>  </thead>  <tbody>    <tr>      <td>Differential: Eosinophil</td>      <td>0.1 x10E9/L</td>      <td>0.0-0.5</td>                            </tr>    <tr>      <td>HAEMOGLOBIN</td>      <td>139 g/L</td>      <td>130-175</td>                            </tr>    <tr>      <td>Differential: Lymphocyte</td>      <td>1.3 x10E9/L</td>      <td>1.0-4.0</td>                            </tr>    <tr>      <td>HCT</td>      <td>0.41 L/L</td>      <td>0.40-0.52</td>                            </tr>    <tr>      <td>ESR</td>      <td>10 mm/h</td>      <td>0-15</td>                            </tr>    <tr>      <td>Differential: Monocyte</td>      <td>0.4 x10E9/L</td>      <td>0.2-1.0</td>                            </tr>    <tr>      <td>Differential: Basophil</td>      <td>0.1 x10E9/L</td>      <td>0-0.2</td>                            </tr>    <tr>      <td>Differential: Neut Seg</td>      <td>5.5 x10E9/L</td>      <td>1.9-7.5</td>                            </tr>    <tr>      <td>MCV</td>      <td>91 fL</td>      <td>80-99</td>                            </tr>    <tr>      <td>PLATELET COUNT</td>      <td>228 x10E9/L</td>      <td>150-400</td>                            </tr>    <tr>      <td>MCH</td>      <td>31 pg</td>      <td>27-33</td>                            </tr>    <tr>      <td>WBC</td>      <td>7.2 x10E9/L</td>      <td>4.0-11.0</td>                            </tr>  </tbody></table><table>  <tbody>    <tr>      <th>Result Group:</th>      <td>GENERAL CHEM....</td>      <th>Result Date:</th>      <td>06 Dec 2021 16:06</td>      <th>Result Status:</th>      <td>completed</td>    </tr>  </tbody></table><table xmlns=\"http://www.w3.org/1999/xhtml\">  <thead>    <tr>      <th>Result Name</th>      <th>Value</th>      <th>Reference Range</th>      <th>Abnormal Indicator</th>      <th>Comments</th>                </tr>  </thead>  <tbody>    <tr>      <td>Uric Acid</td>      <td>0.47 mmol/L</td>      <td>0.23-0.42</td>      <td>H</td>      <td>The urate target level for gout management is &lt;0.36 mmol/L</td>                </tr>  </tbody></table><table>  <tbody>    <tr>      <th>Result Group:</th>      <td>CRP</td>      <th>Result Date:</th>      <td>06 Dec 2021 16:06</td>      <th>Result Status:</th>      <td>completed</td>    </tr>  </tbody></table><table xmlns=\"http://www.w3.org/1999/xhtml\">  <thead>    <tr>      <th>Result Name</th>      <th>Value</th>      <th>Reference Range</th>      <th>Abnormal Indicator</th>      <th>Comments</th>                </tr>  </thead>  <tbody>    <tr>      <td>CRP</td>      <td>0.6 mg/L</td>      <td>0-8</td>                            </tr>  </tbody></table><table>  <tbody>    <tr>      <th>Result Group:</th>      <td>Radiology X-RAY</td>      <th>Result Date:</th>      <td>26 Jul 2021 14:32</td>      <th>Result Status:</th>      <td>completed</td>    </tr>  </tbody></table><table xmlns=\"http://www.w3.org/1999/xhtml\">  <thead>    <tr>      <th>Result Name</th>      <th>Value</th>      <th>Reference Range</th>      <th>Abnormal Indicator</th>      <th>Comments</th>                </tr>  </thead>  <tbody>    <tr>      <td>Radiology X-RAY</td>      <td>This report is for Dr H. CoorayReferred ByDr H. CoorayX-RAY BOTH HANDS 26072021 Reference 3228857 NHI NNJ9186IndicationPain and stiffness in both hands for some weeks. ? OAFindingsNormal bone density. There are bilateral degenerative changes presentin the STT joints more marked on the left side than the right andminor degenerative changes in the 1st carpometacarpal joint. The MCPjoints and interphalangeal joints outline normally. No soft tissuecalcification or periarticular erosions.ConclusionMinor degenerative changes in the STT joints bilaterally and to alesser degree in the 1st carpometacarpal joints consistent withdeveloping osteoarthritisRadiologist Dr John Dumble </td>      <td>NA</td>                            </tr>  </tbody></table><table>  <tbody>    <tr>      <th>Result Group:</th>      <td>I.D.: Molecular biology</td>      <th>Result Date:</th>      <td>24 Jul 2021 14:12</td>      <th>Result Status:</th>      <td>completed</td>    </tr>  </tbody></table><table xmlns=\"http://www.w3.org/1999/xhtml\">  <thead>    <tr>      <th>Result Name</th>      <th>Value</th>      <th>Reference Range</th>      <th>Abnormal Indicator</th>      <th>Comments</th>                </tr>  </thead>  <tbody>    <tr>      <td>Symptomatic</td>      <td>Symptomatic </td>      <td>NA</td>                            </tr>    <tr>      <td>Specimen type (ID molecular)</td>      <td>Swab. Nasophar. </td>      <td>NA</td>                            </tr>    <tr>      <td>SARS-CoV PCR</td>      <td>NOT detected </td>      <td>NA</td>                            </tr>  </tbody></table><table>  <tbody>    <tr>      <th>Result Group:</th>      <td>Extractable Nuclear Antibody</td>      <th>Result Date:</th>      <td>19 Jul 2021 15:35</td>      <th>Result Status:</th>      <td>completed</td>    </tr>  </tbody></table><table xmlns=\"http://www.w3.org/1999/xhtml\">  <thead>    <tr>      <th>Result Name</th>      <th>Value</th>      <th>Reference Range</th>      <th>Abnormal Indicator</th>      <th>Comments</th>                </tr>  </thead>  <tbody>    <tr>      <td>SS-B(La)</td>      <td>                              Negative </td>      <td>NA</td>                            </tr>    <tr>      <td>Jo-1</td>      <td>                              Negative </td>      <td>NA</td>                            </tr>    <tr>      <td>SS-A(Ro)</td>      <td>                              Negative </td>      <td>NA</td>                            </tr>    <tr>      <td>SM</td>      <td>                              Negative </td>      <td>NA</td>                            </tr>    <tr>      <td>RNP</td>      <td>                              Negative </td>      <td>NA</td>                            </tr>    <tr>      <td>Scl-70</td>      <td>                              Negative </td>      <td>NA</td>                            </tr>  </tbody></table><table>  <tbody>    <tr>      <th>Result Group:</th>      <td>ds-DNA Ab Group</td>      <th>Result Date:</th>      <td>19 Jul 2021 13:35</td>      <th>Result Status:</th>      <td>completed</td>    </tr>  </tbody></table><table xmlns=\"http://www.w3.org/1999/xhtml\">  <thead>    <tr>      <th>Result Name</th>      <th>Value</th>      <th>Reference Range</th>      <th>Abnormal Indicator</th>      <th>Comments</th>                </tr>  </thead>  <tbody>    <tr>      <td>ds-DNA Comment</td>      <td> ds-DNA antibodies are specific for SLE but must be interpreted in conjunction with the clinical picture. Low level results (15) are less specific. </td>      <td>NA</td>                            </tr>    <tr>      <td>ds-DNA Antibodies</td>      <td>1.0 IU/mL</td>      <td>&lt;10.0</td>                            </tr>    <tr>      <td>ds-DNA Antibodies</td>      <td>Negative </td>      <td>NA</td>                            </tr>  </tbody></table><table>  <tbody>    <tr>      <th>Result Group:</th>      <td>ANA GROUP</td>      <th>Result Date:</th>      <td>13 Jul 2021 15:05</td>      <th>Result Status:</th>      <td>completed</td>    </tr>  </tbody></table><table xmlns=\"http://www.w3.org/1999/xhtml\">  <thead>    <tr>      <th>Result Name</th>      <th>Value</th>      <th>Reference Range</th>      <th>Abnormal Indicator</th>      <th>Comments</th>                </tr>  </thead>  <tbody>    <tr>      <td>Anti Nuclear Antibody</td>      <td>Positive  </td>      <td>NA</td>                            </tr>    <tr>      <td>Antinuclear Antibody Titre</td>      <td>  Staining patternbr                                Speckled      1 in 320 </td>      <td>NA</td>                            </tr>    <tr>      <td>ANA COMMENT</td>      <td>SPECKLED This pattern may be associated with connective tissue disease but also other non-specific chronic inflammatory conditions. Recommend interpretation in conjunction with ENA and dsDNA. This comment was added by TH (BMLS). </td>      <td>NA</td>                            </tr>  </tbody></table><table>  <tbody>    <tr>      <th>Result Group:</th>      <td>Tissue Autoantibody Screen</td>      <th>Result Date:</th>      <td>12 Jul 2021 15:05</td>      <th>Result Status:</th>      <td>completed</td>    </tr>  </tbody></table><table xmlns=\"http://www.w3.org/1999/xhtml\">  <thead>    <tr>      <th>Result Name</th>      <th>Value</th>      <th>Reference Range</th>      <th>Abnormal Indicator</th>      <th>Comments</th>                </tr>  </thead>  <tbody>    <tr>      <td>Tissue Autoantibody Screen</td>      <td>  Gastric Parietal Cell     Not detectedbr  Mitochondrial          Not detected                20br  Smooth Muscle          Not detected                20 </td>      <td>NA</td>                            </tr>  </tbody></table><table>  <tbody>    <tr>      <th>Result Group:</th>      <td>GENERAL CHEM....</td>      <th>Result Date:</th>      <td>09 Jul 2021 19:06</td>      <th>Result Status:</th>      <td>completed</td>    </tr>  </tbody></table><table xmlns=\"http://www.w3.org/1999/xhtml\">  <thead>    <tr>      <th>Result Name</th>      <th>Value</th>      <th>Reference Range</th>      <th>Abnormal Indicator</th>      <th>Comments</th>                </tr>  </thead>  <tbody>    <tr>      <td>Creatinine</td>      <td>77 umol/L</td>      <td>60-105</td>                            </tr>    <tr>      <td>Uric Acid</td>      <td>0.41 mmol/L</td>      <td>0.23-0.42</td>                            </tr>    <tr>      <td>Potassium</td>      <td>4.5 mmol/L</td>      <td>3.5-5.2</td>                            </tr>    <tr>      <td>eGFR</td>      <td>90 mL/min</td>      <td>&gt;60</td>                            </tr>    <tr>      <td>Sodium</td>      <td>140 mmol/L</td>      <td>135-145</td>                            </tr>  </tbody></table><table>  <tbody>    <tr>      <th>Result Group:</th>      <td>CBC</td>      <th>Result Date:</th>      <td>09 Jul 2021 19:06</td>      <th>Result Status:</th>      <td>completed</td>    </tr>  </tbody></table><table xmlns=\"http://www.w3.org/1999/xhtml\">  <thead>    <tr>      <th>Result Name</th>      <th>Value</th>      <th>Reference Range</th>      <th>Abnormal Indicator</th>      <th>Comments</th>                </tr>  </thead>  <tbody>    <tr>      <td>WBC</td>      <td>9.9 x10E9/L</td>      <td>4.0-11.0</td>                            </tr>    <tr>      <td>MCV</td>      <td>91 fL</td>      <td>80-99</td>                            </tr>    <tr>      <td>Differential: Eosinophil</td>      <td>0.1 x10E9/L</td>      <td>0.0-0.5</td>                            </tr>    <tr>      <td>Differential: Lymphocyte</td>      <td>0.9 x10E9/L</td>      <td>1.0-4.0</td>      <td>L</td>                      </tr>    <tr>      <td>PLATELET COUNT</td>      <td>240 x10E9/L</td>      <td>150-400</td>                            </tr>    <tr>      <td>Differential: Monocyte</td>      <td>0.3 x10E9/L</td>      <td>0.2-1.0</td>                            </tr>    <tr>      <td>Differential: Basophil</td>      <td>0.1 x10E9/L</td>      <td>0-0.2</td>                            </tr>    <tr>      <td>MCH</td>      <td>31 pg</td>      <td>27-33</td>                            </tr>    <tr>      <td>ESR</td>      <td>22 mm/h</td>      <td>0-15</td>      <td>H</td>                      </tr>    <tr>      <td>Differential: Neut Seg</td>      <td>8.6 x10E9/L</td>      <td>1.9-7.5</td>      <td>H</td>                      </tr>    <tr>      <td>HAEMOGLOBIN</td>      <td>142 g/L</td>      <td>130-175</td>                            </tr>    <tr>      <td>HCT</td>      <td>0.42 L/L</td>      <td>0.40-0.52</td>                            </tr>  </tbody></table><table>  <tbody>    <tr>      <th>Result Group:</th>      <td>Cardiac Enzymes</td>      <th>Result Date:</th>      <td>09 Jul 2021 19:06</td>      <th>Result Status:</th>      <td>completed</td>    </tr>  </tbody></table><table xmlns=\"http://www.w3.org/1999/xhtml\">  <thead>    <tr>      <th>Result Name</th>      <th>Value</th>      <th>Reference Range</th>      <th>Abnormal Indicator</th>      <th>Comments</th>                </tr>  </thead>  <tbody>    <tr>      <td>Creatine Kinase</td>      <td>37 U/L</td>      <td>0-220</td>                            </tr>  </tbody></table><table>  <tbody>    <tr>      <th>Result Group:</th>      <td>CRP</td>      <th>Result Date:</th>      <td>09 Jul 2021 19:06</td>      <th>Result Status:</th>      <td>completed</td>    </tr>  </tbody></table><table xmlns=\"http://www.w3.org/1999/xhtml\">  <thead>    <tr>      <th>Result Name</th>      <th>Value</th>      <th>Reference Range</th>      <th>Abnormal Indicator</th>      <th>Comments</th>                </tr>  </thead>  <tbody>    <tr>      <td>CRP</td>      <td>2.8 mg/L</td>      <td>0-8</td>                            </tr>  </tbody></table>\r\n    </div>"
            },
            "entry": [
              {
                "reference": "Observation/b95302da-de00-44e9-a6af-16ed6c8aa96a"
              },
              {
                "reference": "Observation/e1da75db-7372-4bf3-b491-6e6b4f60dcf5"
              },
              {
                "reference": "Observation/21554eed-2a1e-4a5b-9f9b-7f048084d4b8"
              },
              {
                "reference": "DiagnosticReport/6edb9413-7a74-4229-b2cc-8c4cc3fbdc56"
              },
              {
                "reference": "Observation/c9eb38b2-1493-4d6a-a0d6-f74ad3603cf9"
              },
              {
                "reference": "DiagnosticReport/9f170a05-5d34-432a-aa05-a01ed78b55ab"
              },
              {
                "reference": "Observation/99352f22-7147-466a-99f5-20a6c2512e0d"
              },
              {
                "reference": "Observation/77593c24-4556-48b6-8ff4-9443aae7bb17"
              },
              {
                "reference": "Observation/b3fb5f1c-0828-43b6-9300-d4f363e85495"
              },
              {
                "reference": "Observation/4bcabf13-0c10-4391-b29d-56d03a7f64bc"
              },
              {
                "reference": "Observation/b9f75d44-51aa-403e-a2de-83c22fb14fd9"
              },
              {
                "reference": "Observation/914acf3c-3549-4e35-af69-400c7a2fc129"
              },
              {
                "reference": "Observation/61da71cc-4df3-4991-b57a-48707a8c62e6"
              },
              {
                "reference": "Observation/84a820ec-6eae-49e0-8530-6dc26dd68e6b"
              },
              {
                "reference": "Observation/1ab3a450-69c4-4d90-9f5b-3683a74924dd"
              },
              {
                "reference": "Observation/648ecf39-72c9-4df9-83f3-4caf516a463a"
              },
              {
                "reference": "Observation/8ec3e790-84b3-4c42-a208-6bbdd7191fd3"
              },
              {
                "reference": "Observation/54a42064-bcd0-4d95-838e-5884172445bb"
              },
              {
                "reference": "DiagnosticReport/151751e5-938d-4470-94da-9c7087b77318"
              },
              {
                "reference": "Observation/4141657e-3173-4815-98fd-6a22d008981c"
              },
              {
                "reference": "DiagnosticReport/81c63dc2-959c-471b-95c2-35022294420d"
              },
              {
                "reference": "Observation/5a30d8e3-ff60-4e63-bd74-dba01af1e654"
              },
              {
                "reference": "DiagnosticReport/08d08b29-167d-4017-be04-b484e0b213e4"
              },
              {
                "reference": "Observation/4f734868-6af7-40a0-9f9f-9f6d7e493340"
              },
              {
                "reference": "Observation/b2dc806c-b7cc-4fc2-9898-0bde8ccffd53"
              },
              {
                "reference": "Observation/30ede41f-54a6-42ab-8716-15b1e1db96ac"
              },
              {
                "reference": "DiagnosticReport/ca391965-0d69-4a7a-a5b3-3300e41ebe9f"
              },
              {
                "reference": "Observation/33ff8798-8c5e-40b0-97fa-446373689b42"
              },
              {
                "reference": "Observation/b62fb9ea-3422-4e14-ae7a-2d85a3a6e327"
              },
              {
                "reference": "Observation/29c77d62-15b6-499e-b2db-266584b67dc4"
              },
              {
                "reference": "Observation/564f34e3-215a-4190-ad43-d4e256e8fc7d"
              },
              {
                "reference": "Observation/40d2c439-3a25-4256-ad8d-814e53564212"
              },
              {
                "reference": "Observation/b5228c86-4a87-45ef-82ab-d7c1460ef51a"
              },
              {
                "reference": "Observation/25afc93b-3f47-45a0-971c-27f2e5e11789"
              },
              {
                "reference": "Observation/56cb65d9-c750-4ad6-b4ec-6fa46102a5d5"
              },
              {
                "reference": "Observation/15857908-a4da-4f3b-9364-d61d6394f262"
              },
              {
                "reference": "Observation/fcb18d37-92c6-4f22-b183-d845ef2e9e80"
              },
              {
                "reference": "Observation/57e4ed4b-69af-48f4-9008-0ad7bcc8e5e2"
              },
              {
                "reference": "Observation/4c3d9d99-02a7-46c5-be16-44f20d0473b1"
              },
              {
                "reference": "DiagnosticReport/2c2c2ebd-aa9a-4f05-a141-9b35d90d6fdd"
              },
              {
                "reference": "Observation/5b47ad72-845f-41ac-8084-1989e2fac744"
              },
              {
                "reference": "DiagnosticReport/3e37b45f-5263-4b66-8a56-917506ca30f5"
              },
              {
                "reference": "Observation/cf3bc47e-0f29-4298-9c71-345fcd4bae8c"
              },
              {
                "reference": "DiagnosticReport/d7f77601-cd10-46c4-9d17-ae5b0cb3c06e"
              },
              {
                "reference": "Observation/8fbdab54-dbe3-4553-9bf8-2963b67849e3"
              },
              {
                "reference": "Observation/0a55de04-5be9-4d94-9ce2-2e487832f670"
              },
              {
                "reference": "Observation/bbcac165-7da0-474f-ac05-c7dd20277ce8"
              },
              {
                "reference": "DiagnosticReport/55769ef7-11a1-4d0f-922c-b01266ea12f9"
              },
              {
                "reference": "Observation/f994e226-943e-4fe9-b652-f2eac464ad48"
              },
              {
                "reference": "DiagnosticReport/4b81e5d1-5e83-46d1-a488-d0e21ddddb4a"
              },
              {
                "reference": "Observation/3f6b4513-a862-48e1-92b0-bcb33dedca32"
              },
              {
                "reference": "Observation/e230bd70-c588-4654-9481-56bb3ae29536"
              },
              {
                "reference": "Observation/dc6e17c6-0b04-47c5-b8ba-12fc123f05ec"
              },
              {
                "reference": "Observation/037f6db4-da87-4bfb-a8dd-a1b281c4bbd8"
              },
              {
                "reference": "Observation/5a9c5674-ee07-4fbd-b46f-de4552ff905e"
              },
              {
                "reference": "DiagnosticReport/77013832-2ca5-4007-92b1-24aa01cbbcb5"
              },
              {
                "reference": "Observation/f1abaf95-e371-4a67-ad23-57e6dc5c3eb7"
              },
              {
                "reference": "Observation/ed0f1ec6-79d7-4838-8953-61258b1c5715"
              },
              {
                "reference": "Observation/092071ac-78f8-44fd-a204-3b0843928b7b"
              },
              {
                "reference": "Observation/0898ddc9-3594-47db-af24-7076a8d34948"
              },
              {
                "reference": "Observation/c940ba28-7453-424c-86da-fe3f39c5227a"
              },
              {
                "reference": "Observation/43727ce7-63e9-4e89-8640-66a1fe061817"
              },
              {
                "reference": "Observation/de45da02-7962-4ab8-b06d-6fc8cc153706"
              },
              {
                "reference": "Observation/8743c476-96a9-42ff-9968-ccc56c5207fc"
              },
              {
                "reference": "Observation/dab79972-aaca-4cb1-9994-320224ccfce9"
              },
              {
                "reference": "Observation/d1e5141e-335c-4385-bf9b-34dde3d657a7"
              },
              {
                "reference": "Observation/1840bf7b-72f9-46c1-aecb-083633749a32"
              },
              {
                "reference": "Observation/1a5eb308-864a-487c-bd1f-8d0fee2ca804"
              },
              {
                "reference": "DiagnosticReport/b71c070b-a9ab-4840-be03-0dc66beed771"
              },
              {
                "reference": "Observation/2ded3a6d-15ee-46ab-aed1-47e3cbdc1a3e"
              },
              {
                "reference": "DiagnosticReport/c84abc0a-adda-4943-90a1-815dd3ac9f78"
              },
              {
                "reference": "Observation/90a47e41-89fd-43b9-aa0f-bb5cd98d78d0"
              },
              {
                "reference": "DiagnosticReport/c6ee189d-1d3e-439f-898a-37d11fdaf6f2"
              },
              {
                "reference": "Observation/d08b2a07-b059-48c8-ae48-a1ed607aa655"
              },
              {
                "reference": "Observation/1d8e2b07-d375-43aa-9aa0-e08a586eacea"
              },
              {
                "reference": "Observation/3ecebec9-b326-48a4-a18d-045c080ab1e9"
              },
              {
                "reference": "Observation/604f5272-5045-48cb-a9b9-fadde4bd9a09"
              },
              {
                "reference": "Observation/34fe4ebf-3b3a-44d0-ac06-413d50c4cbd9"
              },
              {
                "reference": "Observation/14f71f18-a861-44c7-9183-cab70f397ca4"
              },
              {
                "reference": "Observation/5bc8821c-fd78-46e0-9c19-cede5b4a776b"
              },
              {
                "reference": "Observation/ebc7654c-ffad-486b-9c9c-8e7c06b300c8"
              },
              {
                "reference": "Observation/000b26ec-d83a-4a92-b9f9-7d852198b5b8"
              },
              {
                "reference": "Observation/8cad3441-d42c-444b-959f-2c216eef5c45"
              },
              {
                "reference": "Observation/8e83e483-5140-4f94-94de-d565394327ca"
              },
              {
                "reference": "Observation/a79cd8fa-c9f1-46fc-8f01-74e7cd1537f4"
              },
              {
                "reference": "DiagnosticReport/1a33c628-445c-4086-884b-a3bd45a23f90"
              },
              {
                "reference": "Observation/d8ee6731-9c04-4481-8a91-a58bf2544371"
              },
              {
                "reference": "DiagnosticReport/43ac6edc-1414-4d2d-938a-6c49230096c9"
              },
              {
                "reference": "Observation/a0f9d356-b56e-4394-8ca6-3c802c5f7460"
              },
              {
                "reference": "DiagnosticReport/cd3de563-af32-4f17-9b8a-3e47190511ae"
              },
              {
                "reference": "Observation/5e84bba8-8f24-4e34-a886-d272c1e0249c"
              },
              {
                "reference": "DiagnosticReport/755c2d73-93f1-44fc-ae64-030c02ca221d"
              },
              {
                "reference": "Observation/c355d4f7-b3d9-4333-920d-771a83c9c625"
              },
              {
                "reference": "DiagnosticReport/122adf54-395d-48da-88dc-295de3b47efa"
              },
              {
                "reference": "Observation/b6990585-f5c2-458b-8fe3-369569cced23"
              },
              {
                "reference": "Observation/d6c9fdfd-1a20-44d5-b1e7-b0fd5c4961ff"
              },
              {
                "reference": "Observation/4c3beeb7-460c-47b7-8904-7b2873c2355e"
              },
              {
                "reference": "Observation/e0b36c11-11be-4460-8f7f-457b6691ec62"
              },
              {
                "reference": "Observation/fe992b5b-3ea6-4db6-9402-ecde45f14879"
              },
              {
                "reference": "Observation/4bc7dfe7-a1f0-45bc-bd76-729a50181bf2"
              },
              {
                "reference": "DiagnosticReport/6ea5f88a-e92a-4b72-9894-ba7015275664"
              }
            ]
          }
        ]
      }
    },
    {
      "fullUrl": "https://terminz.azurewebsites.net/fhir/Patient/NNJ9186",
      "resource": {
        "resourceType": "Patient",
        "id": "NNJ9186",
        "text": {
          "status": "generated",
          "div": "<div xmlns='http://www.w3.org/1999/xhtml' xml:lang='en-NZ'>Name: PETER KEITH JONES</div>"
        },
        "identifier": [
          {
            "system": "https://standards.digital.health.nz/ns/nhi-id",
            "value": "NNJ9186"
          }
        ],
        "name": [
          {
            "use": "usual",
            "family": "JONES",
            "given": [
              "PETER KEITH"
            ]
          }
        ],
        "telecom": [
          {
            "system": "other",
            "value": "+6421758834",
            "use": "mobile"
          },
          {
            "system": "other",
            "value": "+6478533279",
            "use": "home"
          },
          {
            "system": "other",
            "value": "+6478533279",
            "use": "work"
          }
        ],
        "gender": "male",
        "birthDate": "1956-09-30",
        "address": [
          {
            "use": "home",
            "type": "physical",
            "line": [
              "3",
              "Worcester Drive",
              "Rototuna North"
            ],
            "city": "Hamilton",
            "postalCode": "3210",
            "country": "New Zealand"
          }
        ],
        "maritalStatus": {
          "coding": [
            {
              "system": "http://terminology.hl7.org/CodeSystem/v3-MaritalStatus",
              "code": "M",
              "display": "Married"
            }
          ]
        },
        "contact": [
          {
            "relationship": [
              {
                "coding": [
                  {
                    "system": "http://terminology.hl7.org/CodeSystem/v2-0131",
                    "code": "C",
                    "display": "Emergency Contact"
                  }
                ]
              }
            ],
            "name": {
              "use": "usual",
              "family": "JONES",
              "given": [
                "Vicki",
                "JONES"
              ]
            },
            "telecom": [
              {
                "system": "phone",
                "value": "21884820",
                "use": "mobile"
              },
              {
                "system": "phone",
                "value": "853 3279",
                "use": "work"
              }
            ],
            "address": {
              "use": "home",
              "type": "physical",
              "line": [
                "3 Worcester Drive",
                "Rototuna North"
              ],
              "city": "Hamilton"
            }
          }
        ]
      }
    },
    {
      "fullUrl": "https://terminz.azurewebsites.net/fhir/Organization/5f1d2fc6-478b-4bdb-8122-c0736bdca25d",
      "resource": {
        "resourceType": "Organization",
        "id": "5f1d2fc6-478b-4bdb-8122-c0736bdca25d",
        "identifier": [
          {
            "system": "https://standards.digital.health.nz/ns/hpi-facility-id",
            "value": "F2N000"
          }
        ],
        "name": "NorthCare Pukete Road-Thomas Road"
      }
    },
    {
      "fullUrl": "https://terminz.azurewebsites.net/fhir/PractitionerRole/1727e976-238d-4a75-b648-01143b62e573",
      "resource": {
        "resourceType": "PractitionerRole",
        "id": "1727e976-238d-4a75-b648-01143b62e573",
        "practitioner": {
          "reference": "Practitioner/0d8ec2a7-800d-43ae-82c0-18c2d6cfa663"
        },
        "code": [
          {
            "coding": [
              {
                "system": "http://snomed.info/sct",
                "code": "158965000",
                "display": "Doctor"
              }
            ]
          }
        ]
      }
    },
    {
      "fullUrl": "https://terminz.azurewebsites.net/fhir/Practitioner/0d8ec2a7-800d-43ae-82c0-18c2d6cfa663",
      "resource": {
        "resourceType": "Practitioner",
        "id": "0d8ec2a7-800d-43ae-82c0-18c2d6cfa663",
        "name": [
          {
            "use": "usual",
            "family": "COORAY",
            "given": [
              "Hashira",
              "COORAY"
            ]
          }
        ],
        "telecom": [
          {
            "system": "phone",
            "value": "07 853 6130",
            "use": "work"
          }
        ]
      }
    },
    {
      "fullUrl": "https://terminz.azurewebsites.net/fhir/Organization/b7e488fa-65e5-4b70-87b1-9fa4c02f31a5",
      "resource": {
        "resourceType": "Organization",
        "id": "b7e488fa-65e5-4b70-87b1-9fa4c02f31a5",
        "identifier": [
          {
            "system": "https://standards.digital.health.nz/ns/hpi-facility-id",
            "value": "F2N000"
          }
        ],
        "name": "NorthCare Pukete Road-Thomas Road"
      }
    },
    {
      "fullUrl": "https://terminz.azurewebsites.net/fhir/AllergyIntolerance/9adfa564-8def-4010-b75f-6a7075fc5dd1",
      "resource": {
        "resourceType": "AllergyIntolerance",
        "id": "9adfa564-8def-4010-b75f-6a7075fc5dd1",
        "clinicalStatus": {
          "coding": [
            {
              "system": "http://terminology.hl7.org/CodeSystem/allergyintolerance-clinical",
              "code": "active"
            }
          ]
        },
        "code": {
          "coding": [
            {
              "system": "http://hl7.org/fhir/uv/ips/CodeSystem/absent-unknown-uv-ips",
              "code": "no-allergy-info",
              "display": "No information about allergies"
            }
          ]
        },
        "patient": {
          "reference": "Patient/NNJ9186"
        }
      }
    },
    {
      "fullUrl": "https://terminz.azurewebsites.net/fhir/Condition/c9dc1880-d8b8-4175-b40e-671b3797228c",
      "resource": {
        "resourceType": "Condition",
        "id": "c9dc1880-d8b8-4175-b40e-671b3797228c",
        "clinicalStatus": {
          "coding": [
            {
              "system": "http://terminology.hl7.org/CodeSystem/condition-clinical",
              "code": "active"
            }
          ]
        },
        "verificationStatus": {
          "coding": [
            {
              "system": "http://terminology.hl7.org/CodeSystem/condition-ver-status",
              "code": "confirmed"
            }
          ]
        },
        "category": [
          {
            "coding": [
              {
                "system": "http://terminology.hl7.org/CodeSystem/condition-category",
                "code": "problem-list-item",
                "display": "Problem List Item"
              },
              {
                "system": "http://loinc.org",
                "code": "75326-9",
                "display": "Problem"
              }
            ]
          }
        ],
        "code": {
          "coding": [
            {
              "system": "http://snomed.info/sct",
              "code": "38341003",
              "display": "Hypertension"
            }
          ],
          "text": "G20.00 (Hypertension)"
        },
        "subject": {
          "reference": "Patient/NNJ9186"
        },
        "recordedDate": "2016-05-25",
        "asserter": {
          "reference": "Practitioner/0d8ec2a7-800d-43ae-82c0-18c2d6cfa663"
        }
      }
    },
    {
      "fullUrl": "https://terminz.azurewebsites.net/fhir/Condition/6fd36c04-9f95-4933-b706-8d8cd08751ba",
      "resource": {
        "resourceType": "Condition",
        "id": "6fd36c04-9f95-4933-b706-8d8cd08751ba",
        "clinicalStatus": {
          "coding": [
            {
              "system": "http://terminology.hl7.org/CodeSystem/condition-clinical",
              "code": "active"
            }
          ]
        },
        "verificationStatus": {
          "coding": [
            {
              "system": "http://terminology.hl7.org/CodeSystem/condition-ver-status",
              "code": "confirmed"
            }
          ]
        },
        "category": [
          {
            "coding": [
              {
                "system": "http://terminology.hl7.org/CodeSystem/condition-category",
                "code": "problem-list-item",
                "display": "Problem List Item"
              },
              {
                "system": "http://loinc.org",
                "code": "75326-9",
                "display": "Problem"
              }
            ]
          }
        ],
        "code": {
          "coding": [
            {
              "system": "http://snomed.info/sct",
              "code": "1240581000000104",
              "display": "Severe acute respiratory syndrome coronavirus 2 detected"
            }
          ]
        },
        "subject": {
          "reference": "Patient/NNJ9186"
        },
        "recordedDate": "2022-03-25"
      }
    },
    {
      "fullUrl": "https://terminz.azurewebsites.net/fhir/Condition/741d5e32-04f4-4c55-a1ee-e811d42d81f2",
      "resource": {
        "resourceType": "Condition",
        "id": "741d5e32-04f4-4c55-a1ee-e811d42d81f2",
        "clinicalStatus": {
          "coding": [
            {
              "system": "http://terminology.hl7.org/CodeSystem/condition-clinical",
              "code": "active"
            }
          ]
        },
        "verificationStatus": {
          "coding": [
            {
              "system": "http://terminology.hl7.org/CodeSystem/condition-ver-status",
              "code": "confirmed"
            }
          ]
        },
        "category": [
          {
            "coding": [
              {
                "system": "http://terminology.hl7.org/CodeSystem/condition-category",
                "code": "problem-list-item",
                "display": "Problem List Item"
              },
              {
                "system": "http://loinc.org",
                "code": "75326-9",
                "display": "Problem"
              }
            ]
          }
        ],
        "code": {
          "coding": [
            {
              "system": "http://snomed.info/sct",
              "code": "90560007",
              "display": "Gout"
            }
          ]
        },
        "subject": {
          "reference": "Patient/NNJ9186"
        },
        "recordedDate": "2020-10-01"
      }
    },
    {
      "fullUrl": "https://terminz.azurewebsites.net/fhir/MedicationStatement/04513216-2361-41e2-bfff-8730f223f2b6",
      "resource": {
        "resourceType": "MedicationStatement",
        "id": "04513216-2361-41e2-bfff-8730f223f2b6",
        "status": "active",
        "medicationReference": {
          "reference": "Medication/97157768-C8F1-4A41-82B2-F26390BA0C20"
        },
        "subject": {
          "reference": "Patient/NNJ9186"
        },
        "effectiveDateTime": "2022-08-26",
        "informationSource": {
          "reference": "Organization/b7e488fa-65e5-4b70-87b1-9fa4c02f31a5"
        },
        "dosage": [
          {
            "text": "Take 1 daily",
            "doseAndRate": [
              {
                "type": {
                  "coding": [
                    {
                      "system": "http://terminology.hl7.org/CodeSystem/dose-rate-type",
                      "code": "ordered",
                      "display": "Ordered"
                    }
                  ]
                },
                "doseQuantity": {
                  "value": 1,
                  "unit": "tablet",
                  "system": "http://snomed.info/sct",
                  "code": "385055001"
                }
              }
            ]
          }
        ]
      }
    },
    {
      "fullUrl": "https://terminz.azurewebsites.net/fhir/MedicationStatement/4dc67cc2-d7a9-4e2e-b130-c98d3879ea7c",
      "resource": {
        "resourceType": "MedicationStatement",
        "id": "4dc67cc2-d7a9-4e2e-b130-c98d3879ea7c",
        "status": "active",
        "medicationReference": {
          "reference": "Medication/9F130F5E-E59F-4B97-A98E-21A73C78A6F7"
        },
        "subject": {
          "reference": "Patient/NNJ9186"
        },
        "effectiveDateTime": "2021-12-17",
        "informationSource": {
          "reference": "Organization/b7e488fa-65e5-4b70-87b1-9fa4c02f31a5"
        },
        "dosage": [
          {
            "text": "Take 4mg daily for 1/12 then reduce by 1mg by 1 month",
            "route": {
              "coding": [
                {
                  "system": "http://terminology.hl7.org/CodeSystem/v3-RouteOfAdministration",
                  "code": "PO",
                  "display": "Swallow, oral"
                }
              ]
            },
            "doseAndRate": [
              {
                "type": {
                  "coding": [
                    {
                      "system": "http://terminology.hl7.org/CodeSystem/dose-rate-type",
                      "code": "ordered",
                      "display": "Ordered"
                    }
                  ]
                },
                "doseQuantity": {
                  "value": 1,
                  "unit": "tablet",
                  "system": "http://snomed.info/sct",
                  "code": "385055001"
                }
              }
            ]
          }
        ]
      }
    },
    {
      "fullUrl": "https://terminz.azurewebsites.net/fhir/Medication/97157768-C8F1-4A41-82B2-F26390BA0C20",
      "resource": {
        "resourceType": "Medication",
        "id": "97157768-C8F1-4A41-82B2-F26390BA0C20",
        "code": {
          "coding": [
            {
              "system": "http://nzmt.org.nz",
              "code": "31099751000116106",
              "display": "cilazapril 500 microgram tablet, 90"
            },
            {
              "system": "http://snomed.info/sct",
              "code": "318913001",
              "display": "Product containing cilazapril (medicinal product)"
            }
          ]
        },
        "form": {
          "coding": [
            {
              "system": "http://snomed.info/sct",
              "code": "385055001",
              "display": "tablet"
            }
          ]
        }
      }
    },
    {
      "fullUrl": "https://terminz.azurewebsites.net/fhir/Medication/9F130F5E-E59F-4B97-A98E-21A73C78A6F7",
      "resource": {
        "resourceType": "Medication",
        "id": "9F130F5E-E59F-4B97-A98E-21A73C78A6F7",
        "code": {
          "coding": [
            {
              "system": "http://nzmt.org.nz",
              "code": "10060441000116103",
              "display": "prednisone 1 mg tablet"
            },
            {
              "system": "http://snomed.info/sct",
              "code": "10312003",
              "display": "Product containing prednisone (medicinal product)"
            }
          ]
        },
        "form": {
          "coding": [
            {
              "system": "http://snomed.info/sct",
              "code": "385055001",
              "display": "tablet"
            }
          ]
        }
      }
    },
    {
      "fullUrl": "https://terminz.azurewebsites.net/fhir/Immunization/56b21481-16ce-43ad-9444-e0b18b52aae3",
      "resource": {
        "resourceType": "Immunization",
        "id": "56b21481-16ce-43ad-9444-e0b18b52aae3",
        "status": "completed",
        "vaccineCode": {
          "coding": [
            {
              "system": "http://hl7.org/fhir/sid/cvx",
              "code": "208",
              "display": "SARS-COV-2 (COVID-19) vaccine, mRNA, spike protein, LNP, preservative free, 30 mcg/0.3mL dose"
            }
          ]
        },
        "patient": {
          "reference": "Patient/NNJ9186"
        },
        "occurrenceDateTime": "2022-08-01",
        "lotNumber": "PCB0008-07",
        "site": {
          "coding": [
            {
              "system": "http://snomed.info/sct",
              "code": "16217701000119102",
              "display": "Structure of left deltoid muscle"
            }
          ]
        },
        "route": {
          "coding": [
            {
              "system": "http://terminology.hl7.org/CodeSystem/v3-RouteOfAdministration",
              "code": "IM",
              "display": "Injection, intramuscular"
            }
          ]
        },
        "performer": [
          {
            "actor": {
              "reference": "Organization/b7e488fa-65e5-4b70-87b1-9fa4c02f31a5"
            }
          }
        ],
        "protocolApplied": [
          {
            "series": "12 (At risk, no previous history)",
            "doseNumberPositiveInt": 4
          }
        ]
      }
    },
    {
      "fullUrl": "https://terminz.azurewebsites.net/fhir/Immunization/ea94d00c-4a24-4fa7-9070-7942e05e6c75",
      "resource": {
        "resourceType": "Immunization",
        "id": "ea94d00c-4a24-4fa7-9070-7942e05e6c75",
        "status": "completed",
        "vaccineCode": {
          "coding": [
            {
              "system": "http://hl7.org/fhir/sid/cvx",
              "code": "121",
              "display": "zoster vaccine, live"
            }
          ]
        },
        "patient": {
          "reference": "Patient/NNJ9186"
        },
        "occurrenceDateTime": "2022-07-13",
        "lotNumber": "U021248",
        "site": {
          "coding": [
            {
              "system": "http://snomed.info/sct",
              "code": "72098002",
              "display": "Entire left upper arm"
            }
          ]
        },
        "route": {
          "coding": [
            {
              "system": "http://terminology.hl7.org/CodeSystem/v3-RouteOfAdministration",
              "code": "IM",
              "display": "Injection, intramuscular"
            }
          ]
        },
        "performer": [
          {
            "actor": {
              "reference": "Organization/b7e488fa-65e5-4b70-87b1-9fa4c02f31a5"
            }
          }
        ],
        "protocolApplied": [
          {
            "series": "65Y (65 years)",
            "doseNumberPositiveInt": 1
          }
        ]
      }
    },
    {
      "fullUrl": "https://terminz.azurewebsites.net/fhir/Immunization/0d943ea5-cb6f-4246-9708-bfd231aff416",
      "resource": {
        "resourceType": "Immunization",
        "id": "0d943ea5-cb6f-4246-9708-bfd231aff416",
        "status": "completed",
        "vaccineCode": {
          "coding": [
            {
              "system": "http://hl7.org/fhir/sid/cvx",
              "code": "141",
              "display": "Influenza, seasonal, injectable"
            }
          ]
        },
        "patient": {
          "reference": "Patient/NNJ9186"
        },
        "occurrenceDateTime": "2022-06-01",
        "lotNumber": "P100421221",
        "site": {
          "coding": [
            {
              "system": "http://snomed.info/sct",
              "code": "16217701000119102",
              "display": "Structure of left deltoid muscle"
            }
          ]
        },
        "route": {
          "coding": [
            {
              "system": "http://terminology.hl7.org/CodeSystem/v3-RouteOfAdministration",
              "code": "IM",
              "display": "Injection, intramuscular"
            }
          ]
        },
        "performer": [
          {
            "actor": {
              "reference": "Organization/b7e488fa-65e5-4b70-87b1-9fa4c02f31a5"
            }
          }
        ],
        "protocolApplied": [
          {
            "series": "1 (Over 65 years (Influenza))",
            "doseNumberPositiveInt": 1
          }
        ]
      }
    },
    {
      "fullUrl": "https://terminz.azurewebsites.net/fhir/Immunization/357698b5-55de-4ebd-bd3e-f2415a9d58ac",
      "resource": {
        "resourceType": "Immunization",
        "id": "357698b5-55de-4ebd-bd3e-f2415a9d58ac",
        "status": "completed",
        "vaccineCode": {
          "coding": [
            {
              "system": "http://hl7.org/fhir/sid/cvx",
              "code": "208",
              "display": "SARS-COV-2 (COVID-19) vaccine, mRNA, spike protein, LNP, preservative free, 30 mcg/0.3mL dose"
            }
          ]
        },
        "patient": {
          "reference": "Patient/NNJ9186"
        },
        "occurrenceDateTime": "2022-01-13",
        "lotNumber": "FL1072-025",
        "route": {
          "coding": [
            {
              "system": "http://terminology.hl7.org/CodeSystem/v3-RouteOfAdministration",
              "code": "IM",
              "display": "Injection, intramuscular"
            }
          ]
        },
        "performer": [
          {
            "actor": {
              "reference": "Organization/b7e488fa-65e5-4b70-87b1-9fa4c02f31a5"
            }
          }
        ],
        "protocolApplied": [
          {
            "series": "12 (At risk, no previous history)",
            "doseNumberPositiveInt": 3
          }
        ]
      }
    },
    {
      "fullUrl": "https://terminz.azurewebsites.net/fhir/Immunization/2b40a80a-fe2e-49ed-8d43-71e3564b5b39",
      "resource": {
        "resourceType": "Immunization",
        "id": "2b40a80a-fe2e-49ed-8d43-71e3564b5b39",
        "status": "completed",
        "vaccineCode": {
          "coding": [
            {
              "system": "http://hl7.org/fhir/sid/cvx",
              "code": "208",
              "display": "SARS-COV-2 (COVID-19) vaccine, mRNA, spike protein, LNP, preservative free, 30 mcg/0.3mL dose"
            }
          ]
        },
        "patient": {
          "reference": "Patient/NNJ9186"
        },
        "occurrenceDateTime": "2021-08-27",
        "lotNumber": "FE8163-007",
        "site": {
          "coding": [
            {
              "system": "http://snomed.info/sct",
              "code": "16217701000119102",
              "display": "Structure of left deltoid muscle"
            }
          ]
        },
        "route": {
          "coding": [
            {
              "system": "http://terminology.hl7.org/CodeSystem/v3-RouteOfAdministration",
              "code": "IM",
              "display": "Injection, intramuscular"
            }
          ]
        },
        "performer": [
          {
            "actor": {
              "reference": "Organization/b7e488fa-65e5-4b70-87b1-9fa4c02f31a5"
            }
          }
        ],
        "protocolApplied": [
          {
            "series": "12 (At risk, no previous history)",
            "doseNumberPositiveInt": 2
          }
        ]
      }
    },
    {
      "fullUrl": "https://terminz.azurewebsites.net/fhir/Immunization/dca795c1-433a-4044-9681-a417b7970dfc",
      "resource": {
        "resourceType": "Immunization",
        "id": "dca795c1-433a-4044-9681-a417b7970dfc",
        "status": "completed",
        "vaccineCode": {
          "coding": [
            {
              "system": "http://hl7.org/fhir/sid/cvx",
              "code": "208",
              "display": "SARS-COV-2 (COVID-19) vaccine, mRNA, spike protein, LNP, preservative free, 30 mcg/0.3mL dose"
            }
          ]
        },
        "patient": {
          "reference": "Patient/NNJ9186"
        },
        "occurrenceDateTime": "2021-08-05",
        "lotNumber": "FF8871-001",
        "site": {
          "coding": [
            {
              "system": "http://snomed.info/sct",
              "code": "16217701000119102",
              "display": "Structure of left deltoid muscle"
            }
          ]
        },
        "route": {
          "coding": [
            {
              "system": "http://terminology.hl7.org/CodeSystem/v3-RouteOfAdministration",
              "code": "IM",
              "display": "Injection, intramuscular"
            }
          ]
        },
        "performer": [
          {
            "actor": {
              "reference": "Organization/b7e488fa-65e5-4b70-87b1-9fa4c02f31a5"
            }
          }
        ],
        "protocolApplied": [
          {
            "series": "12 (At risk, no previous history)",
            "doseNumberPositiveInt": 1
          }
        ]
      }
    },
    {
      "fullUrl": "https://terminz.azurewebsites.net/fhir/Immunization/af3a78e8-e683-49fa-90b8-12d63cbb0ce3",
      "resource": {
        "resourceType": "Immunization",
        "id": "af3a78e8-e683-49fa-90b8-12d63cbb0ce3",
        "status": "completed",
        "vaccineCode": {
          "coding": [
            {
              "system": "http://hl7.org/fhir/sid/cvx",
              "code": "141",
              "display": "Influenza, seasonal, injectable"
            }
          ]
        },
        "patient": {
          "reference": "Patient/NNJ9186"
        },
        "occurrenceDateTime": "2021-05-31",
        "lotNumber": "P100320654",
        "site": {
          "coding": [
            {
              "system": "http://snomed.info/sct",
              "code": "72098002",
              "display": "Entire left upper arm"
            }
          ]
        },
        "route": {
          "coding": [
            {
              "system": "http://terminology.hl7.org/CodeSystem/v3-RouteOfAdministration",
              "code": "IM",
              "display": "Injection, intramuscular"
            }
          ]
        },
        "performer": [
          {
            "actor": {
              "reference": "Organization/b7e488fa-65e5-4b70-87b1-9fa4c02f31a5"
            }
          }
        ],
        "protocolApplied": [
          {
            "series": "3 (Eligible condition (Influenza))",
            "doseNumberPositiveInt": 1
          }
        ]
      }
    },
    {
      "fullUrl": "https://terminz.azurewebsites.net/fhir/DiagnosticReport/6edb9413-7a74-4229-b2cc-8c4cc3fbdc56",
      "resource": {
        "resourceType": "DiagnosticReport",
        "id": "6edb9413-7a74-4229-b2cc-8c4cc3fbdc56",
        "status": "final",
        "code": {
          "coding": [
            {
              "system": "http://loinc.org",
              "code": "94306-8",
              "display": "SARS-CoV-2 (COVID-19) RNA panel - Specimen by NAA with probe detection"
            }
          ],
          "text": "$INFMO (I.D.: Molecular biology)"
        },
        "subject": {
          "reference": "Patient/NNJ9186"
        },
        "effectiveDateTime": "2021-07-24T14:12:00+00:00",
        "result": [
          {
            "reference": "Observation/b95302da-de00-44e9-a6af-16ed6c8aa96a"
          },
          {
            "reference": "Observation/e1da75db-7372-4bf3-b491-6e6b4f60dcf5"
          },
          {
            "reference": "Observation/21554eed-2a1e-4a5b-9f9b-7f048084d4b8"
          }
        ]
      }
    },
    {
      "fullUrl": "https://terminz.azurewebsites.net/fhir/DiagnosticReport/9f170a05-5d34-432a-aa05-a01ed78b55ab",
      "resource": {
        "resourceType": "DiagnosticReport",
        "id": "9f170a05-5d34-432a-aa05-a01ed78b55ab",
        "status": "final",
        "code": {
          "text": "5780 (CRP)"
        },
        "subject": {
          "reference": "Patient/NNJ9186"
        },
        "effectiveDateTime": "2022-01-10T15:36:00+00:00",
        "result": [
          {
            "reference": "Observation/c9eb38b2-1493-4d6a-a0d6-f74ad3603cf9"
          }
        ]
      }
    },
    {
      "fullUrl": "https://terminz.azurewebsites.net/fhir/DiagnosticReport/151751e5-938d-4470-94da-9c7087b77318",
      "resource": {
        "resourceType": "DiagnosticReport",
        "id": "151751e5-938d-4470-94da-9c7087b77318",
        "status": "final",
        "code": {
          "text": "4014 (CBC)"
        },
        "subject": {
          "reference": "Patient/NNJ9186"
        },
        "effectiveDateTime": "2021-12-06T16:35:00+00:00",
        "result": [
          {
            "reference": "Observation/99352f22-7147-466a-99f5-20a6c2512e0d"
          },
          {
            "reference": "Observation/77593c24-4556-48b6-8ff4-9443aae7bb17"
          },
          {
            "reference": "Observation/b3fb5f1c-0828-43b6-9300-d4f363e85495"
          },
          {
            "reference": "Observation/4bcabf13-0c10-4391-b29d-56d03a7f64bc"
          },
          {
            "reference": "Observation/b9f75d44-51aa-403e-a2de-83c22fb14fd9"
          },
          {
            "reference": "Observation/914acf3c-3549-4e35-af69-400c7a2fc129"
          },
          {
            "reference": "Observation/61da71cc-4df3-4991-b57a-48707a8c62e6"
          },
          {
            "reference": "Observation/84a820ec-6eae-49e0-8530-6dc26dd68e6b"
          },
          {
            "reference": "Observation/1ab3a450-69c4-4d90-9f5b-3683a74924dd"
          },
          {
            "reference": "Observation/648ecf39-72c9-4df9-83f3-4caf516a463a"
          },
          {
            "reference": "Observation/8ec3e790-84b3-4c42-a208-6bbdd7191fd3"
          },
          {
            "reference": "Observation/54a42064-bcd0-4d95-838e-5884172445bb"
          }
        ]
      }
    },
    {
      "fullUrl": "https://terminz.azurewebsites.net/fhir/DiagnosticReport/81c63dc2-959c-471b-95c2-35022294420d",
      "resource": {
        "resourceType": "DiagnosticReport",
        "id": "81c63dc2-959c-471b-95c2-35022294420d",
        "status": "final",
        "code": {
          "text": "0055 (GENERAL CHEM....)"
        },
        "subject": {
          "reference": "Patient/NNJ9186"
        },
        "effectiveDateTime": "2022-01-10T15:36:00+00:00",
        "result": [
          {
            "reference": "Observation/4141657e-3173-4815-98fd-6a22d008981c"
          }
        ]
      }
    },
    {
      "fullUrl": "https://terminz.azurewebsites.net/fhir/DiagnosticReport/08d08b29-167d-4017-be04-b484e0b213e4",
      "resource": {
        "resourceType": "DiagnosticReport",
        "id": "08d08b29-167d-4017-be04-b484e0b213e4",
        "status": "final",
        "code": {
          "text": "RADXR (Radiology X-RAY)"
        },
        "subject": {
          "reference": "Patient/NNJ9186"
        },
        "effectiveDateTime": "2021-12-29T12:37:00+00:00",
        "result": [
          {
            "reference": "Observation/5a30d8e3-ff60-4e63-bd74-dba01af1e654"
          }
        ]
      }
    },
    {
      "fullUrl": "https://terminz.azurewebsites.net/fhir/DiagnosticReport/ca391965-0d69-4a7a-a5b3-3300e41ebe9f",
      "resource": {
        "resourceType": "DiagnosticReport",
        "id": "ca391965-0d69-4a7a-a5b3-3300e41ebe9f",
        "status": "final",
        "code": {
          "text": "5803 (ds-DNA Ab Group)"
        },
        "subject": {
          "reference": "Patient/NNJ9186"
        },
        "effectiveDateTime": "2021-07-19T13:35:00+00:00",
        "result": [
          {
            "reference": "Observation/4f734868-6af7-40a0-9f9f-9f6d7e493340"
          },
          {
            "reference": "Observation/b2dc806c-b7cc-4fc2-9898-0bde8ccffd53"
          },
          {
            "reference": "Observation/30ede41f-54a6-42ab-8716-15b1e1db96ac"
          }
        ]
      }
    },
    {
      "fullUrl": "https://terminz.azurewebsites.net/fhir/DiagnosticReport/2c2c2ebd-aa9a-4f05-a141-9b35d90d6fdd",
      "resource": {
        "resourceType": "DiagnosticReport",
        "id": "2c2c2ebd-aa9a-4f05-a141-9b35d90d6fdd",
        "status": "final",
        "code": {
          "text": "4014 (CBC)"
        },
        "subject": {
          "reference": "Patient/NNJ9186"
        },
        "effectiveDateTime": "2021-12-21T19:06:00+00:00",
        "result": [
          {
            "reference": "Observation/33ff8798-8c5e-40b0-97fa-446373689b42"
          },
          {
            "reference": "Observation/b62fb9ea-3422-4e14-ae7a-2d85a3a6e327"
          },
          {
            "reference": "Observation/29c77d62-15b6-499e-b2db-266584b67dc4"
          },
          {
            "reference": "Observation/564f34e3-215a-4190-ad43-d4e256e8fc7d"
          },
          {
            "reference": "Observation/40d2c439-3a25-4256-ad8d-814e53564212"
          },
          {
            "reference": "Observation/b5228c86-4a87-45ef-82ab-d7c1460ef51a"
          },
          {
            "reference": "Observation/25afc93b-3f47-45a0-971c-27f2e5e11789"
          },
          {
            "reference": "Observation/56cb65d9-c750-4ad6-b4ec-6fa46102a5d5"
          },
          {
            "reference": "Observation/15857908-a4da-4f3b-9364-d61d6394f262"
          },
          {
            "reference": "Observation/fcb18d37-92c6-4f22-b183-d845ef2e9e80"
          },
          {
            "reference": "Observation/57e4ed4b-69af-48f4-9008-0ad7bcc8e5e2"
          },
          {
            "reference": "Observation/4c3d9d99-02a7-46c5-be16-44f20d0473b1"
          }
        ]
      }
    },
    {
      "fullUrl": "https://terminz.azurewebsites.net/fhir/DiagnosticReport/3e37b45f-5263-4b66-8a56-917506ca30f5",
      "resource": {
        "resourceType": "DiagnosticReport",
        "id": "3e37b45f-5263-4b66-8a56-917506ca30f5",
        "status": "final",
        "code": {
          "text": "5780 (CRP)"
        },
        "subject": {
          "reference": "Patient/NNJ9186"
        },
        "effectiveDateTime": "2021-12-21T18:06:00+00:00",
        "result": [
          {
            "reference": "Observation/5b47ad72-845f-41ac-8084-1989e2fac744"
          }
        ]
      }
    },
    {
      "fullUrl": "https://terminz.azurewebsites.net/fhir/DiagnosticReport/d7f77601-cd10-46c4-9d17-ae5b0cb3c06e",
      "resource": {
        "resourceType": "DiagnosticReport",
        "id": "d7f77601-cd10-46c4-9d17-ae5b0cb3c06e",
        "status": "final",
        "code": {
          "text": "0055 (GENERAL CHEM....)"
        },
        "subject": {
          "reference": "Patient/NNJ9186"
        },
        "effectiveDateTime": "2021-12-06T16:06:00+00:00",
        "result": [
          {
            "reference": "Observation/cf3bc47e-0f29-4298-9c71-345fcd4bae8c"
          }
        ]
      }
    },
    {
      "fullUrl": "https://terminz.azurewebsites.net/fhir/DiagnosticReport/55769ef7-11a1-4d0f-922c-b01266ea12f9",
      "resource": {
        "resourceType": "DiagnosticReport",
        "id": "55769ef7-11a1-4d0f-922c-b01266ea12f9",
        "status": "final",
        "code": {
          "text": "5789 (ANA GROUP)"
        },
        "subject": {
          "reference": "Patient/NNJ9186"
        },
        "effectiveDateTime": "2021-07-13T15:05:00+00:00",
        "result": [
          {
            "reference": "Observation/8fbdab54-dbe3-4553-9bf8-2963b67849e3"
          },
          {
            "reference": "Observation/0a55de04-5be9-4d94-9ce2-2e487832f670"
          },
          {
            "reference": "Observation/bbcac165-7da0-474f-ac05-c7dd20277ce8"
          }
        ]
      }
    },
    {
      "fullUrl": "https://terminz.azurewebsites.net/fhir/DiagnosticReport/4b81e5d1-5e83-46d1-a488-d0e21ddddb4a",
      "resource": {
        "resourceType": "DiagnosticReport",
        "id": "4b81e5d1-5e83-46d1-a488-d0e21ddddb4a",
        "status": "final",
        "code": {
          "text": "5780 (CRP)"
        },
        "subject": {
          "reference": "Patient/NNJ9186"
        },
        "effectiveDateTime": "2021-12-06T16:06:00+00:00",
        "result": [
          {
            "reference": "Observation/f994e226-943e-4fe9-b652-f2eac464ad48"
          }
        ]
      }
    },
    {
      "fullUrl": "https://terminz.azurewebsites.net/fhir/DiagnosticReport/77013832-2ca5-4007-92b1-24aa01cbbcb5",
      "resource": {
        "resourceType": "DiagnosticReport",
        "id": "77013832-2ca5-4007-92b1-24aa01cbbcb5",
        "status": "final",
        "code": {
          "text": "0055 (GENERAL CHEM....)"
        },
        "subject": {
          "reference": "Patient/NNJ9186"
        },
        "effectiveDateTime": "2021-07-09T19:06:00+00:00",
        "result": [
          {
            "reference": "Observation/3f6b4513-a862-48e1-92b0-bcb33dedca32"
          },
          {
            "reference": "Observation/e230bd70-c588-4654-9481-56bb3ae29536"
          },
          {
            "reference": "Observation/dc6e17c6-0b04-47c5-b8ba-12fc123f05ec"
          },
          {
            "reference": "Observation/037f6db4-da87-4bfb-a8dd-a1b281c4bbd8"
          },
          {
            "reference": "Observation/5a9c5674-ee07-4fbd-b46f-de4552ff905e"
          }
        ]
      }
    },
    {
      "fullUrl": "https://terminz.azurewebsites.net/fhir/DiagnosticReport/b71c070b-a9ab-4840-be03-0dc66beed771",
      "resource": {
        "resourceType": "DiagnosticReport",
        "id": "b71c070b-a9ab-4840-be03-0dc66beed771",
        "status": "final",
        "code": {
          "text": "4014 (CBC)"
        },
        "subject": {
          "reference": "Patient/NNJ9186"
        },
        "effectiveDateTime": "2021-07-09T19:06:00+00:00",
        "result": [
          {
            "reference": "Observation/f1abaf95-e371-4a67-ad23-57e6dc5c3eb7"
          },
          {
            "reference": "Observation/ed0f1ec6-79d7-4838-8953-61258b1c5715"
          },
          {
            "reference": "Observation/092071ac-78f8-44fd-a204-3b0843928b7b"
          },
          {
            "reference": "Observation/0898ddc9-3594-47db-af24-7076a8d34948"
          },
          {
            "reference": "Observation/c940ba28-7453-424c-86da-fe3f39c5227a"
          },
          {
            "reference": "Observation/43727ce7-63e9-4e89-8640-66a1fe061817"
          },
          {
            "reference": "Observation/de45da02-7962-4ab8-b06d-6fc8cc153706"
          },
          {
            "reference": "Observation/8743c476-96a9-42ff-9968-ccc56c5207fc"
          },
          {
            "reference": "Observation/dab79972-aaca-4cb1-9994-320224ccfce9"
          },
          {
            "reference": "Observation/d1e5141e-335c-4385-bf9b-34dde3d657a7"
          },
          {
            "reference": "Observation/1840bf7b-72f9-46c1-aecb-083633749a32"
          },
          {
            "reference": "Observation/1a5eb308-864a-487c-bd1f-8d0fee2ca804"
          }
        ]
      }
    },
    {
      "fullUrl": "https://terminz.azurewebsites.net/fhir/DiagnosticReport/c84abc0a-adda-4943-90a1-815dd3ac9f78",
      "resource": {
        "resourceType": "DiagnosticReport",
        "id": "c84abc0a-adda-4943-90a1-815dd3ac9f78",
        "status": "final",
        "code": {
          "text": "0055 (GENERAL CHEM....)"
        },
        "subject": {
          "reference": "Patient/NNJ9186"
        },
        "effectiveDateTime": "2021-12-21T18:06:00+00:00",
        "result": [
          {
            "reference": "Observation/2ded3a6d-15ee-46ab-aed1-47e3cbdc1a3e"
          }
        ]
      }
    },
    {
      "fullUrl": "https://terminz.azurewebsites.net/fhir/DiagnosticReport/c6ee189d-1d3e-439f-898a-37d11fdaf6f2",
      "resource": {
        "resourceType": "DiagnosticReport",
        "id": "c6ee189d-1d3e-439f-898a-37d11fdaf6f2",
        "status": "final",
        "code": {
          "text": "1630 (Cardiac Enzymes)"
        },
        "subject": {
          "reference": "Patient/NNJ9186"
        },
        "effectiveDateTime": "2021-07-09T19:06:00+00:00",
        "result": [
          {
            "reference": "Observation/90a47e41-89fd-43b9-aa0f-bb5cd98d78d0"
          }
        ]
      }
    },
    {
      "fullUrl": "https://terminz.azurewebsites.net/fhir/DiagnosticReport/1a33c628-445c-4086-884b-a3bd45a23f90",
      "resource": {
        "resourceType": "DiagnosticReport",
        "id": "1a33c628-445c-4086-884b-a3bd45a23f90",
        "status": "final",
        "code": {
          "text": "4014 (CBC)"
        },
        "subject": {
          "reference": "Patient/NNJ9186"
        },
        "effectiveDateTime": "2022-01-10T16:05:00+00:00",
        "result": [
          {
            "reference": "Observation/d08b2a07-b059-48c8-ae48-a1ed607aa655"
          },
          {
            "reference": "Observation/1d8e2b07-d375-43aa-9aa0-e08a586eacea"
          },
          {
            "reference": "Observation/3ecebec9-b326-48a4-a18d-045c080ab1e9"
          },
          {
            "reference": "Observation/604f5272-5045-48cb-a9b9-fadde4bd9a09"
          },
          {
            "reference": "Observation/34fe4ebf-3b3a-44d0-ac06-413d50c4cbd9"
          },
          {
            "reference": "Observation/14f71f18-a861-44c7-9183-cab70f397ca4"
          },
          {
            "reference": "Observation/5bc8821c-fd78-46e0-9c19-cede5b4a776b"
          },
          {
            "reference": "Observation/ebc7654c-ffad-486b-9c9c-8e7c06b300c8"
          },
          {
            "reference": "Observation/000b26ec-d83a-4a92-b9f9-7d852198b5b8"
          },
          {
            "reference": "Observation/8cad3441-d42c-444b-959f-2c216eef5c45"
          },
          {
            "reference": "Observation/8e83e483-5140-4f94-94de-d565394327ca"
          },
          {
            "reference": "Observation/a79cd8fa-c9f1-46fc-8f01-74e7cd1537f4"
          }
        ]
      }
    },
    {
      "fullUrl": "https://terminz.azurewebsites.net/fhir/DiagnosticReport/43ac6edc-1414-4d2d-938a-6c49230096c9",
      "resource": {
        "resourceType": "DiagnosticReport",
        "id": "43ac6edc-1414-4d2d-938a-6c49230096c9",
        "status": "final",
        "code": {
          "text": "3711 (Screening FIT)"
        },
        "subject": {
          "reference": "Patient/NNJ9186"
        },
        "effectiveDateTime": "2021-12-10T21:00:00+00:00",
        "result": [
          {
            "reference": "Observation/d8ee6731-9c04-4481-8a91-a58bf2544371"
          }
        ]
      }
    },
    {
      "fullUrl": "https://terminz.azurewebsites.net/fhir/DiagnosticReport/cd3de563-af32-4f17-9b8a-3e47190511ae",
      "resource": {
        "resourceType": "DiagnosticReport",
        "id": "cd3de563-af32-4f17-9b8a-3e47190511ae",
        "status": "final",
        "code": {
          "text": "5780 (CRP)"
        },
        "subject": {
          "reference": "Patient/NNJ9186"
        },
        "effectiveDateTime": "2021-07-09T19:06:00+00:00",
        "result": [
          {
            "reference": "Observation/a0f9d356-b56e-4394-8ca6-3c802c5f7460"
          }
        ]
      }
    },
    {
      "fullUrl": "https://terminz.azurewebsites.net/fhir/DiagnosticReport/755c2d73-93f1-44fc-ae64-030c02ca221d",
      "resource": {
        "resourceType": "DiagnosticReport",
        "id": "755c2d73-93f1-44fc-ae64-030c02ca221d",
        "status": "final",
        "code": {
          "text": "RADXR (Radiology X-RAY)"
        },
        "subject": {
          "reference": "Patient/NNJ9186"
        },
        "effectiveDateTime": "2021-07-26T14:32:00+00:00",
        "result": [
          {
            "reference": "Observation/5e84bba8-8f24-4e34-a886-d272c1e0249c"
          }
        ]
      }
    },
    {
      "fullUrl": "https://terminz.azurewebsites.net/fhir/DiagnosticReport/122adf54-395d-48da-88dc-295de3b47efa",
      "resource": {
        "resourceType": "DiagnosticReport",
        "id": "122adf54-395d-48da-88dc-295de3b47efa",
        "status": "final",
        "code": {
          "text": "5250 (Tissue Autoantibody Screen)"
        },
        "subject": {
          "reference": "Patient/NNJ9186"
        },
        "effectiveDateTime": "2021-07-12T15:05:00+00:00",
        "result": [
          {
            "reference": "Observation/c355d4f7-b3d9-4333-920d-771a83c9c625"
          }
        ]
      }
    },
    {
      "fullUrl": "https://terminz.azurewebsites.net/fhir/DiagnosticReport/6ea5f88a-e92a-4b72-9894-ba7015275664",
      "resource": {
        "resourceType": "DiagnosticReport",
        "id": "6ea5f88a-e92a-4b72-9894-ba7015275664",
        "status": "final",
        "code": {
          "text": "5329 (Extractable Nuclear Antibody)"
        },
        "subject": {
          "reference": "Patient/NNJ9186"
        },
        "effectiveDateTime": "2021-07-19T15:35:00+00:00",
        "result": [
          {
            "reference": "Observation/b6990585-f5c2-458b-8fe3-369569cced23"
          },
          {
            "reference": "Observation/d6c9fdfd-1a20-44d5-b1e7-b0fd5c4961ff"
          },
          {
            "reference": "Observation/4c3beeb7-460c-47b7-8904-7b2873c2355e"
          },
          {
            "reference": "Observation/e0b36c11-11be-4460-8f7f-457b6691ec62"
          },
          {
            "reference": "Observation/fe992b5b-3ea6-4db6-9402-ecde45f14879"
          },
          {
            "reference": "Observation/4bc7dfe7-a1f0-45bc-bd76-729a50181bf2"
          }
        ]
      }
    },
    {
      "fullUrl": "https://terminz.azurewebsites.net/fhir/Observation/b95302da-de00-44e9-a6af-16ed6c8aa96a",
      "resource": {
        "resourceType": "Observation",
        "id": "b95302da-de00-44e9-a6af-16ed6c8aa96a",
        "status": "final",
        "category": [
          {
            "coding": [
              {
                "system": "http://terminology.hl7.org/CodeSystem/observation-category",
                "code": "laboratory"
              }
            ]
          }
        ],
        "code": {
          "text": "$SYMP (Symptomatic)"
        },
        "subject": {
          "reference": "Patient/NNJ9186"
        },
        "effectiveDateTime": "2021-07-24T14:12:00+00:00",
        "performer": [
          {
            "reference": "PractitionerRole/4a8b40d1-ddf3-48a3-8e07-b03d3fd56eda"
          }
        ],
        "valueString": "Symptomatic",
        "referenceRange": [
          {
            "text": "NA"
          }
        ]
      }
    },
    {
      "fullUrl": "https://terminz.azurewebsites.net/fhir/Observation/e1da75db-7372-4bf3-b491-6e6b4f60dcf5",
      "resource": {
        "resourceType": "Observation",
        "id": "e1da75db-7372-4bf3-b491-6e6b4f60dcf5",
        "status": "final",
        "category": [
          {
            "coding": [
              {
                "system": "http://terminology.hl7.org/CodeSystem/observation-category",
                "code": "laboratory"
              }
            ]
          }
        ],
        "code": {
          "text": "$MOLSPEC (Specimen type (ID molecular))"
        },
        "subject": {
          "reference": "Patient/NNJ9186"
        },
        "effectiveDateTime": "2021-07-24T14:12:00+00:00",
        "performer": [
          {
            "reference": "PractitionerRole/4a8b40d1-ddf3-48a3-8e07-b03d3fd56eda"
          }
        ],
        "valueString": "Swab. Nasophar.",
        "referenceRange": [
          {
            "text": "NA"
          }
        ]
      }
    },
    {
      "fullUrl": "https://terminz.azurewebsites.net/fhir/Observation/21554eed-2a1e-4a5b-9f9b-7f048084d4b8",
      "resource": {
        "resourceType": "Observation",
        "id": "21554eed-2a1e-4a5b-9f9b-7f048084d4b8",
        "status": "final",
        "category": [
          {
            "coding": [
              {
                "system": "http://terminology.hl7.org/CodeSystem/observation-category",
                "code": "laboratory"
              }
            ]
          }
        ],
        "code": {
          "coding": [
            {
              "system": "http://loinc.org",
              "code": "94500-6",
              "display": "SARS-CoV-2 (COVID-19) RNA [Presence] in Respiratory specimen by NAA with probe detection"
            }
          ]
        },
        "subject": {
          "reference": "Patient/NNJ9186"
        },
        "effectiveDateTime": "2021-07-24T14:12:00+00:00",
        "performer": [
          {
            "reference": "PractitionerRole/4a8b40d1-ddf3-48a3-8e07-b03d3fd56eda"
          }
        ],
        "valueCodeableConcept": {
          "coding": [
            {
              "system": "http://snomed.info/sct",
              "code": "260415000",
              "display": "Not detected"
            }
          ]
        },
        "referenceRange": [
          {
            "text": "NA"
          }
        ]
      }
    },
    {
      "fullUrl": "https://terminz.azurewebsites.net/fhir/Observation/c9eb38b2-1493-4d6a-a0d6-f74ad3603cf9",
      "resource": {
        "resourceType": "Observation",
        "id": "c9eb38b2-1493-4d6a-a0d6-f74ad3603cf9",
        "status": "final",
        "category": [
          {
            "coding": [
              {
                "system": "http://terminology.hl7.org/CodeSystem/observation-category",
                "code": "laboratory"
              }
            ]
          }
        ],
        "code": {
          "coding": [
            {
              "system": "http://loinc.org",
              "code": "1988-5",
              "display": "C reactive protein [Mass/volume] in Serum or Plasma"
            }
          ]
        },
        "subject": {
          "reference": "Patient/NNJ9186"
        },
        "effectiveDateTime": "2022-01-10T15:36:00+00:00",
        "performer": [
          {
            "reference": "PractitionerRole/4a8b40d1-ddf3-48a3-8e07-b03d3fd56eda"
          }
        ],
        "valueQuantity": {
          "value": 0.4,
          "unit": "mg/L",
          "system": "http://unitsofmeasure.org",
          "code": "mg/L"
        },
        "referenceRange": [
          {
            "text": "0-8"
          }
        ]
      }
    },
    {
      "fullUrl": "https://terminz.azurewebsites.net/fhir/Observation/99352f22-7147-466a-99f5-20a6c2512e0d",
      "resource": {
        "resourceType": "Observation",
        "id": "99352f22-7147-466a-99f5-20a6c2512e0d",
        "status": "final",
        "category": [
          {
            "coding": [
              {
                "system": "http://terminology.hl7.org/CodeSystem/observation-category",
                "code": "laboratory"
              }
            ]
          }
        ],
        "code": {
          "coding": [
            {
              "system": "http://loinc.org",
              "code": "26449-9",
              "display": "Eosinophils [#/volume] in Blood"
            }
          ]
        },
        "subject": {
          "reference": "Patient/NNJ9186"
        },
        "effectiveDateTime": "2021-12-06T16:35:00+00:00",
        "performer": [
          {
            "reference": "PractitionerRole/4a8b40d1-ddf3-48a3-8e07-b03d3fd56eda"
          }
        ],
        "valueQuantity": {
          "value": 0.1,
          "unit": "10*9/L",
          "system": "http://unitsofmeasure.org",
          "code": "10*9/L"
        },
        "referenceRange": [
          {
            "text": "0.0-0.5"
          }
        ]
      }
    },
    {
      "fullUrl": "https://terminz.azurewebsites.net/fhir/Observation/77593c24-4556-48b6-8ff4-9443aae7bb17",
      "resource": {
        "resourceType": "Observation",
        "id": "77593c24-4556-48b6-8ff4-9443aae7bb17",
        "status": "final",
        "category": [
          {
            "coding": [
              {
                "system": "http://terminology.hl7.org/CodeSystem/observation-category",
                "code": "laboratory"
              }
            ]
          }
        ],
        "code": {
          "coding": [
            {
              "system": "http://loinc.org",
              "code": "718-7",
              "display": "Hemoglobin [Mass/volume] in Blood"
            }
          ]
        },
        "subject": {
          "reference": "Patient/NNJ9186"
        },
        "effectiveDateTime": "2021-12-06T16:35:00+00:00",
        "performer": [
          {
            "reference": "PractitionerRole/4a8b40d1-ddf3-48a3-8e07-b03d3fd56eda"
          }
        ],
        "valueQuantity": {
          "value": 139,
          "unit": "g/L",
          "system": "http://unitsofmeasure.org",
          "code": "g/L"
        },
        "referenceRange": [
          {
            "text": "130-175"
          }
        ]
      }
    },
    {
      "fullUrl": "https://terminz.azurewebsites.net/fhir/Observation/b3fb5f1c-0828-43b6-9300-d4f363e85495",
      "resource": {
        "resourceType": "Observation",
        "id": "b3fb5f1c-0828-43b6-9300-d4f363e85495",
        "status": "final",
        "category": [
          {
            "coding": [
              {
                "system": "http://terminology.hl7.org/CodeSystem/observation-category",
                "code": "laboratory"
              }
            ]
          }
        ],
        "code": {
          "coding": [
            {
              "system": "http://loinc.org",
              "code": "26474-7",
              "display": "Lymphocytes [#/volume] in Blood"
            }
          ]
        },
        "subject": {
          "reference": "Patient/NNJ9186"
        },
        "effectiveDateTime": "2021-12-06T16:35:00+00:00",
        "performer": [
          {
            "reference": "PractitionerRole/4a8b40d1-ddf3-48a3-8e07-b03d3fd56eda"
          }
        ],
        "valueQuantity": {
          "value": 1.3,
          "unit": "10*9/L",
          "system": "http://unitsofmeasure.org",
          "code": "10*9/L"
        },
        "referenceRange": [
          {
            "text": "1.0-4.0"
          }
        ]
      }
    },
    {
      "fullUrl": "https://terminz.azurewebsites.net/fhir/Observation/4bcabf13-0c10-4391-b29d-56d03a7f64bc",
      "resource": {
        "resourceType": "Observation",
        "id": "4bcabf13-0c10-4391-b29d-56d03a7f64bc",
        "status": "final",
        "category": [
          {
            "coding": [
              {
                "system": "http://terminology.hl7.org/CodeSystem/observation-category",
                "code": "laboratory"
              }
            ]
          }
        ],
        "code": {
          "coding": [
            {
              "system": "http://loinc.org",
              "code": "20570-8",
              "display": "Hematocrit [Volume Fraction] of Blood"
            }
          ]
        },
        "subject": {
          "reference": "Patient/NNJ9186"
        },
        "effectiveDateTime": "2021-12-06T16:35:00+00:00",
        "performer": [
          {
            "reference": "PractitionerRole/4a8b40d1-ddf3-48a3-8e07-b03d3fd56eda"
          }
        ],
        "valueQuantity": {
          "value": 0.41,
          "unit": "L/L",
          "system": "http://unitsofmeasure.org",
          "code": "L/L"
        },
        "referenceRange": [
          {
            "text": "0.40-0.52"
          }
        ]
      }
    },
    {
      "fullUrl": "https://terminz.azurewebsites.net/fhir/Observation/b9f75d44-51aa-403e-a2de-83c22fb14fd9",
      "resource": {
        "resourceType": "Observation",
        "id": "b9f75d44-51aa-403e-a2de-83c22fb14fd9",
        "status": "final",
        "category": [
          {
            "coding": [
              {
                "system": "http://terminology.hl7.org/CodeSystem/observation-category",
                "code": "laboratory"
              }
            ]
          }
        ],
        "code": {
          "text": "4070 (ESR)"
        },
        "subject": {
          "reference": "Patient/NNJ9186"
        },
        "effectiveDateTime": "2021-12-06T16:35:00+00:00",
        "performer": [
          {
            "reference": "PractitionerRole/4a8b40d1-ddf3-48a3-8e07-b03d3fd56eda"
          }
        ],
        "valueQuantity": {
          "value": 10,
          "unit": "mm/h",
          "system": "http://unitsofmeasure.org",
          "code": "mm/h"
        },
        "referenceRange": [
          {
            "text": "0-15"
          }
        ]
      }
    },
    {
      "fullUrl": "https://terminz.azurewebsites.net/fhir/Observation/914acf3c-3549-4e35-af69-400c7a2fc129",
      "resource": {
        "resourceType": "Observation",
        "id": "914acf3c-3549-4e35-af69-400c7a2fc129",
        "status": "final",
        "category": [
          {
            "coding": [
              {
                "system": "http://terminology.hl7.org/CodeSystem/observation-category",
                "code": "laboratory"
              }
            ]
          }
        ],
        "code": {
          "coding": [
            {
              "system": "http://loinc.org",
              "code": "26484-6",
              "display": "Monocytes [#/volume] in Blood"
            }
          ]
        },
        "subject": {
          "reference": "Patient/NNJ9186"
        },
        "effectiveDateTime": "2021-12-06T16:35:00+00:00",
        "performer": [
          {
            "reference": "PractitionerRole/4a8b40d1-ddf3-48a3-8e07-b03d3fd56eda"
          }
        ],
        "valueQuantity": {
          "value": 0.4,
          "unit": "10*9/L",
          "system": "http://unitsofmeasure.org",
          "code": "10*9/L"
        },
        "referenceRange": [
          {
            "text": "0.2-1.0"
          }
        ]
      }
    },
    {
      "fullUrl": "https://terminz.azurewebsites.net/fhir/Observation/61da71cc-4df3-4991-b57a-48707a8c62e6",
      "resource": {
        "resourceType": "Observation",
        "id": "61da71cc-4df3-4991-b57a-48707a8c62e6",
        "status": "final",
        "category": [
          {
            "coding": [
              {
                "system": "http://terminology.hl7.org/CodeSystem/observation-category",
                "code": "laboratory"
              }
            ]
          }
        ],
        "code": {
          "coding": [
            {
              "system": "http://loinc.org",
              "code": "26444-0",
              "display": "Basophils [#/volume] in Blood"
            }
          ]
        },
        "subject": {
          "reference": "Patient/NNJ9186"
        },
        "effectiveDateTime": "2021-12-06T16:35:00+00:00",
        "performer": [
          {
            "reference": "PractitionerRole/4a8b40d1-ddf3-48a3-8e07-b03d3fd56eda"
          }
        ],
        "valueQuantity": {
          "value": 0.1,
          "unit": "10*9/L",
          "system": "http://unitsofmeasure.org",
          "code": "10*9/L"
        },
        "referenceRange": [
          {
            "text": "0-0.2"
          }
        ]
      }
    },
    {
      "fullUrl": "https://terminz.azurewebsites.net/fhir/Observation/84a820ec-6eae-49e0-8530-6dc26dd68e6b",
      "resource": {
        "resourceType": "Observation",
        "id": "84a820ec-6eae-49e0-8530-6dc26dd68e6b",
        "status": "final",
        "category": [
          {
            "coding": [
              {
                "system": "http://terminology.hl7.org/CodeSystem/observation-category",
                "code": "laboratory"
              }
            ]
          }
        ],
        "code": {
          "coding": [
            {
              "system": "http://loinc.org",
              "code": "30449-3",
              "display": "Neutrophils.hypersegmented [#/volume] in Blood"
            }
          ]
        },
        "subject": {
          "reference": "Patient/NNJ9186"
        },
        "effectiveDateTime": "2021-12-06T16:35:00+00:00",
        "performer": [
          {
            "reference": "PractitionerRole/4a8b40d1-ddf3-48a3-8e07-b03d3fd56eda"
          }
        ],
        "valueQuantity": {
          "value": 5.5,
          "unit": "10*9/L",
          "system": "http://unitsofmeasure.org",
          "code": "10*9/L"
        },
        "referenceRange": [
          {
            "text": "1.9-7.5"
          }
        ]
      }
    },
    {
      "fullUrl": "https://terminz.azurewebsites.net/fhir/Observation/1ab3a450-69c4-4d90-9f5b-3683a74924dd",
      "resource": {
        "resourceType": "Observation",
        "id": "1ab3a450-69c4-4d90-9f5b-3683a74924dd",
        "status": "final",
        "category": [
          {
            "coding": [
              {
                "system": "http://terminology.hl7.org/CodeSystem/observation-category",
                "code": "laboratory"
              }
            ]
          }
        ],
        "code": {
          "coding": [
            {
              "system": "http://loinc.org",
              "code": "30428-7",
              "display": "MCV [Entitic volume]"
            }
          ]
        },
        "subject": {
          "reference": "Patient/NNJ9186"
        },
        "effectiveDateTime": "2021-12-06T16:35:00+00:00",
        "performer": [
          {
            "reference": "PractitionerRole/4a8b40d1-ddf3-48a3-8e07-b03d3fd56eda"
          }
        ],
        "valueQuantity": {
          "value": 91,
          "unit": "fL",
          "system": "http://unitsofmeasure.org",
          "code": "fL"
        },
        "referenceRange": [
          {
            "text": "80-99"
          }
        ]
      }
    },
    {
      "fullUrl": "https://terminz.azurewebsites.net/fhir/Observation/648ecf39-72c9-4df9-83f3-4caf516a463a",
      "resource": {
        "resourceType": "Observation",
        "id": "648ecf39-72c9-4df9-83f3-4caf516a463a",
        "status": "final",
        "category": [
          {
            "coding": [
              {
                "system": "http://terminology.hl7.org/CodeSystem/observation-category",
                "code": "laboratory"
              }
            ]
          }
        ],
        "code": {
          "coding": [
            {
              "system": "http://loinc.org",
              "code": "26515-7",
              "display": "Platelets [#/volume] in Blood"
            }
          ]
        },
        "subject": {
          "reference": "Patient/NNJ9186"
        },
        "effectiveDateTime": "2021-12-06T16:35:00+00:00",
        "performer": [
          {
            "reference": "PractitionerRole/4a8b40d1-ddf3-48a3-8e07-b03d3fd56eda"
          }
        ],
        "valueQuantity": {
          "value": 228,
          "unit": "10*9/L",
          "system": "http://unitsofmeasure.org",
          "code": "10*9/L"
        },
        "referenceRange": [
          {
            "text": "150-400"
          }
        ]
      }
    },
    {
      "fullUrl": "https://terminz.azurewebsites.net/fhir/Observation/8ec3e790-84b3-4c42-a208-6bbdd7191fd3",
      "resource": {
        "resourceType": "Observation",
        "id": "8ec3e790-84b3-4c42-a208-6bbdd7191fd3",
        "status": "final",
        "category": [
          {
            "coding": [
              {
                "system": "http://terminology.hl7.org/CodeSystem/observation-category",
                "code": "laboratory"
              }
            ]
          }
        ],
        "code": {
          "coding": [
            {
              "system": "http://loinc.org",
              "code": "28539-5",
              "display": "MCH [Entitic mass]"
            }
          ]
        },
        "subject": {
          "reference": "Patient/NNJ9186"
        },
        "effectiveDateTime": "2021-12-06T16:35:00+00:00",
        "performer": [
          {
            "reference": "PractitionerRole/4a8b40d1-ddf3-48a3-8e07-b03d3fd56eda"
          }
        ],
        "valueQuantity": {
          "value": 31,
          "unit": "pg",
          "system": "http://unitsofmeasure.org",
          "code": "pg"
        },
        "referenceRange": [
          {
            "text": "27-33"
          }
        ]
      }
    },
    {
      "fullUrl": "https://terminz.azurewebsites.net/fhir/Observation/54a42064-bcd0-4d95-838e-5884172445bb",
      "resource": {
        "resourceType": "Observation",
        "id": "54a42064-bcd0-4d95-838e-5884172445bb",
        "status": "final",
        "category": [
          {
            "coding": [
              {
                "system": "http://terminology.hl7.org/CodeSystem/observation-category",
                "code": "laboratory"
              }
            ]
          }
        ],
        "code": {
          "coding": [
            {
              "system": "http://loinc.org",
              "code": "26464-8",
              "display": "Leukocytes [#/volume] in Blood"
            }
          ]
        },
        "subject": {
          "reference": "Patient/NNJ9186"
        },
        "effectiveDateTime": "2021-12-06T16:35:00+00:00",
        "performer": [
          {
            "reference": "PractitionerRole/4a8b40d1-ddf3-48a3-8e07-b03d3fd56eda"
          }
        ],
        "valueQuantity": {
          "value": 7.2,
          "unit": "10*9/L",
          "system": "http://unitsofmeasure.org",
          "code": "10*9/L"
        },
        "referenceRange": [
          {
            "text": "4.0-11.0"
          }
        ]
      }
    },
    {
      "fullUrl": "https://terminz.azurewebsites.net/fhir/Observation/4141657e-3173-4815-98fd-6a22d008981c",
      "resource": {
        "resourceType": "Observation",
        "id": "4141657e-3173-4815-98fd-6a22d008981c",
        "status": "final",
        "category": [
          {
            "coding": [
              {
                "system": "http://terminology.hl7.org/CodeSystem/observation-category",
                "code": "laboratory"
              }
            ]
          }
        ],
        "code": {
          "coding": [
            {
              "system": "http://loinc.org",
              "code": "14933-6",
              "display": "Urate [Moles/volume] in Serum or Plasma"
            }
          ]
        },
        "subject": {
          "reference": "Patient/NNJ9186"
        },
        "effectiveDateTime": "2022-01-10T15:36:00+00:00",
        "performer": [
          {
            "reference": "PractitionerRole/4a8b40d1-ddf3-48a3-8e07-b03d3fd56eda"
          }
        ],
        "valueQuantity": {
          "value": 0.39,
          "unit": "mmol/L",
          "system": "http://unitsofmeasure.org",
          "code": "mmol/L"
        },
        "note": [
          {
            "text": "The urate target level for gout management is <0.36 mmol/L"
          },
          {
            "text": "L"
          }
        ],
        "referenceRange": [
          {
            "text": "0.23-0.42"
          }
        ]
      }
    },
    {
      "fullUrl": "https://terminz.azurewebsites.net/fhir/Observation/5a30d8e3-ff60-4e63-bd74-dba01af1e654",
      "resource": {
        "resourceType": "Observation",
        "id": "5a30d8e3-ff60-4e63-bd74-dba01af1e654",
        "status": "final",
        "category": [
          {
            "coding": [
              {
                "system": "http://terminology.hl7.org/CodeSystem/observation-category",
                "code": "imaging"
              }
            ]
          }
        ],
        "code": {
          "text": "RADXR (Radiology X-RAY)"
        },
        "subject": {
          "reference": "Patient/NNJ9186"
        },
        "effectiveDateTime": "2021-12-29T12:36:00+00:00",
        "performer": [
          {
            "reference": "PractitionerRole/d72d0d4c-8dc3-4568-9b4d-f09bc571df77"
          }
        ],
        "valueString": "This report is for Dr H. CoorayReferred ByDr H. CoorayX-RAY BOTH SHOULDERS 29122021 Reference 3294617 NHI NNJ9186IndicationBilateral shoulder pain initial relief with prednisone but now notresolving.FindingsMild degenerative changes in the AC joints bilaterally slightly moremarked on the left where there is subchondral sclerosis. Superiormarginal osteophyte formation bilaterally.Mild degenerative changes in the glenohumeral joints bilaterally withglenoid subchondral sclerosis joint spaces are well preserved.No other features of note on either side.CommentNon-specific degenerative changes on both sides with no plain filmevidence for a specific arthropathy.Radiologist Dr Barry Chatterton",
        "referenceRange": [
          {
            "text": "NA"
          }
        ]
      }
    },
    {
      "fullUrl": "https://terminz.azurewebsites.net/fhir/Observation/4f734868-6af7-40a0-9f9f-9f6d7e493340",
      "resource": {
        "resourceType": "Observation",
        "id": "4f734868-6af7-40a0-9f9f-9f6d7e493340",
        "status": "final",
        "category": [
          {
            "coding": [
              {
                "system": "http://terminology.hl7.org/CodeSystem/observation-category",
                "code": "laboratory"
              }
            ]
          }
        ],
        "code": {
          "text": "5806 (ds-DNA Comment)"
        },
        "subject": {
          "reference": "Patient/NNJ9186"
        },
        "effectiveDateTime": "2021-07-19T13:35:00+00:00",
        "performer": [
          {
            "reference": "PractitionerRole/4a8b40d1-ddf3-48a3-8e07-b03d3fd56eda"
          }
        ],
        "valueString": "ds-DNA antibodies are specific for SLE but must be interpreted in conjunction with the clinical picture. Low level results (15) are less specific.",
        "referenceRange": [
          {
            "text": "NA"
          }
        ]
      }
    },
    {
      "fullUrl": "https://terminz.azurewebsites.net/fhir/Observation/b2dc806c-b7cc-4fc2-9898-0bde8ccffd53",
      "resource": {
        "resourceType": "Observation",
        "id": "b2dc806c-b7cc-4fc2-9898-0bde8ccffd53",
        "status": "final",
        "category": [
          {
            "coding": [
              {
                "system": "http://terminology.hl7.org/CodeSystem/observation-category",
                "code": "laboratory"
              }
            ]
          }
        ],
        "code": {
          "coding": [
            {
              "system": "http://loinc.org",
              "code": "32677-7",
              "display": "DNA double strand Ab [Units/volume] in Serum by Immunoassay"
            }
          ]
        },
        "subject": {
          "reference": "Patient/NNJ9186"
        },
        "effectiveDateTime": "2021-07-19T13:35:00+00:00",
        "performer": [
          {
            "reference": "PractitionerRole/4a8b40d1-ddf3-48a3-8e07-b03d3fd56eda"
          }
        ],
        "valueQuantity": {
          "value": 1.0,
          "unit": "m[IU]/mL",
          "system": "http://unitsofmeasure.org",
          "code": "m[IU]/mL"
        },
        "referenceRange": [
          {
            "text": "<10.0"
          }
        ]
      }
    },
    {
      "fullUrl": "https://terminz.azurewebsites.net/fhir/Observation/30ede41f-54a6-42ab-8716-15b1e1db96ac",
      "resource": {
        "resourceType": "Observation",
        "id": "30ede41f-54a6-42ab-8716-15b1e1db96ac",
        "status": "final",
        "category": [
          {
            "coding": [
              {
                "system": "http://terminology.hl7.org/CodeSystem/observation-category",
                "code": "laboratory"
              }
            ]
          }
        ],
        "code": {
          "coding": [
            {
              "system": "http://loinc.org",
              "code": "31348-6",
              "display": "DNA double strand Ab [Presence] in Serum"
            }
          ]
        },
        "subject": {
          "reference": "Patient/NNJ9186"
        },
        "effectiveDateTime": "2021-07-19T13:35:00+00:00",
        "performer": [
          {
            "reference": "PractitionerRole/4a8b40d1-ddf3-48a3-8e07-b03d3fd56eda"
          }
        ],
        "valueString": "Negative",
        "referenceRange": [
          {
            "text": "NA"
          }
        ]
      }
    },
    {
      "fullUrl": "https://terminz.azurewebsites.net/fhir/Observation/33ff8798-8c5e-40b0-97fa-446373689b42",
      "resource": {
        "resourceType": "Observation",
        "id": "33ff8798-8c5e-40b0-97fa-446373689b42",
        "status": "final",
        "category": [
          {
            "coding": [
              {
                "system": "http://terminology.hl7.org/CodeSystem/observation-category",
                "code": "laboratory"
              }
            ]
          }
        ],
        "code": {
          "coding": [
            {
              "system": "http://loinc.org",
              "code": "28539-5",
              "display": "MCH [Entitic mass]"
            }
          ]
        },
        "subject": {
          "reference": "Patient/NNJ9186"
        },
        "effectiveDateTime": "2021-12-21T19:06:00+00:00",
        "performer": [
          {
            "reference": "PractitionerRole/4a8b40d1-ddf3-48a3-8e07-b03d3fd56eda"
          }
        ],
        "valueQuantity": {
          "value": 31,
          "unit": "pg",
          "system": "http://unitsofmeasure.org",
          "code": "pg"
        },
        "referenceRange": [
          {
            "text": "27-33"
          }
        ]
      }
    },
    {
      "fullUrl": "https://terminz.azurewebsites.net/fhir/Observation/b62fb9ea-3422-4e14-ae7a-2d85a3a6e327",
      "resource": {
        "resourceType": "Observation",
        "id": "b62fb9ea-3422-4e14-ae7a-2d85a3a6e327",
        "status": "final",
        "category": [
          {
            "coding": [
              {
                "system": "http://terminology.hl7.org/CodeSystem/observation-category",
                "code": "laboratory"
              }
            ]
          }
        ],
        "code": {
          "coding": [
            {
              "system": "http://loinc.org",
              "code": "718-7",
              "display": "Hemoglobin [Mass/volume] in Blood"
            }
          ]
        },
        "subject": {
          "reference": "Patient/NNJ9186"
        },
        "effectiveDateTime": "2021-12-21T19:06:00+00:00",
        "performer": [
          {
            "reference": "PractitionerRole/4a8b40d1-ddf3-48a3-8e07-b03d3fd56eda"
          }
        ],
        "valueQuantity": {
          "value": 141,
          "unit": "g/L",
          "system": "http://unitsofmeasure.org",
          "code": "g/L"
        },
        "referenceRange": [
          {
            "text": "130-175"
          }
        ]
      }
    },
    {
      "fullUrl": "https://terminz.azurewebsites.net/fhir/Observation/29c77d62-15b6-499e-b2db-266584b67dc4",
      "resource": {
        "resourceType": "Observation",
        "id": "29c77d62-15b6-499e-b2db-266584b67dc4",
        "status": "final",
        "category": [
          {
            "coding": [
              {
                "system": "http://terminology.hl7.org/CodeSystem/observation-category",
                "code": "laboratory"
              }
            ]
          }
        ],
        "code": {
          "coding": [
            {
              "system": "http://loinc.org",
              "code": "30449-3",
              "display": "Neutrophils.hypersegmented [#/volume] in Blood"
            }
          ]
        },
        "subject": {
          "reference": "Patient/NNJ9186"
        },
        "effectiveDateTime": "2021-12-21T19:06:00+00:00",
        "performer": [
          {
            "reference": "PractitionerRole/4a8b40d1-ddf3-48a3-8e07-b03d3fd56eda"
          }
        ],
        "valueQuantity": {
          "value": 6.8,
          "unit": "10*9/L",
          "system": "http://unitsofmeasure.org",
          "code": "10*9/L"
        },
        "referenceRange": [
          {
            "text": "1.9-7.5"
          }
        ]
      }
    },
    {
      "fullUrl": "https://terminz.azurewebsites.net/fhir/Observation/564f34e3-215a-4190-ad43-d4e256e8fc7d",
      "resource": {
        "resourceType": "Observation",
        "id": "564f34e3-215a-4190-ad43-d4e256e8fc7d",
        "status": "final",
        "category": [
          {
            "coding": [
              {
                "system": "http://terminology.hl7.org/CodeSystem/observation-category",
                "code": "laboratory"
              }
            ]
          }
        ],
        "code": {
          "coding": [
            {
              "system": "http://loinc.org",
              "code": "26474-7",
              "display": "Lymphocytes [#/volume] in Blood"
            }
          ]
        },
        "subject": {
          "reference": "Patient/NNJ9186"
        },
        "effectiveDateTime": "2021-12-21T19:06:00+00:00",
        "performer": [
          {
            "reference": "PractitionerRole/4a8b40d1-ddf3-48a3-8e07-b03d3fd56eda"
          }
        ],
        "valueQuantity": {
          "value": 1.3,
          "unit": "10*9/L",
          "system": "http://unitsofmeasure.org",
          "code": "10*9/L"
        },
        "referenceRange": [
          {
            "text": "1.0-4.0"
          }
        ]
      }
    },
    {
      "fullUrl": "https://terminz.azurewebsites.net/fhir/Observation/40d2c439-3a25-4256-ad8d-814e53564212",
      "resource": {
        "resourceType": "Observation",
        "id": "40d2c439-3a25-4256-ad8d-814e53564212",
        "status": "final",
        "category": [
          {
            "coding": [
              {
                "system": "http://terminology.hl7.org/CodeSystem/observation-category",
                "code": "laboratory"
              }
            ]
          }
        ],
        "code": {
          "coding": [
            {
              "system": "http://loinc.org",
              "code": "30428-7",
              "display": "MCV [Entitic volume]"
            }
          ]
        },
        "subject": {
          "reference": "Patient/NNJ9186"
        },
        "effectiveDateTime": "2021-12-21T19:06:00+00:00",
        "performer": [
          {
            "reference": "PractitionerRole/4a8b40d1-ddf3-48a3-8e07-b03d3fd56eda"
          }
        ],
        "valueQuantity": {
          "value": 92,
          "unit": "fL",
          "system": "http://unitsofmeasure.org",
          "code": "fL"
        },
        "referenceRange": [
          {
            "text": "80-99"
          }
        ]
      }
    },
    {
      "fullUrl": "https://terminz.azurewebsites.net/fhir/Observation/b5228c86-4a87-45ef-82ab-d7c1460ef51a",
      "resource": {
        "resourceType": "Observation",
        "id": "b5228c86-4a87-45ef-82ab-d7c1460ef51a",
        "status": "final",
        "category": [
          {
            "coding": [
              {
                "system": "http://terminology.hl7.org/CodeSystem/observation-category",
                "code": "laboratory"
              }
            ]
          }
        ],
        "code": {
          "coding": [
            {
              "system": "http://loinc.org",
              "code": "26444-0",
              "display": "Basophils [#/volume] in Blood"
            }
          ]
        },
        "subject": {
          "reference": "Patient/NNJ9186"
        },
        "effectiveDateTime": "2021-12-21T19:06:00+00:00",
        "performer": [
          {
            "reference": "PractitionerRole/4a8b40d1-ddf3-48a3-8e07-b03d3fd56eda"
          }
        ],
        "valueQuantity": {
          "value": 0.1,
          "unit": "10*9/L",
          "system": "http://unitsofmeasure.org",
          "code": "10*9/L"
        },
        "referenceRange": [
          {
            "text": "0-0.2"
          }
        ]
      }
    },
    {
      "fullUrl": "https://terminz.azurewebsites.net/fhir/Observation/25afc93b-3f47-45a0-971c-27f2e5e11789",
      "resource": {
        "resourceType": "Observation",
        "id": "25afc93b-3f47-45a0-971c-27f2e5e11789",
        "status": "final",
        "category": [
          {
            "coding": [
              {
                "system": "http://terminology.hl7.org/CodeSystem/observation-category",
                "code": "laboratory"
              }
            ]
          }
        ],
        "code": {
          "coding": [
            {
              "system": "http://loinc.org",
              "code": "26484-6",
              "display": "Monocytes [#/volume] in Blood"
            }
          ]
        },
        "subject": {
          "reference": "Patient/NNJ9186"
        },
        "effectiveDateTime": "2021-12-21T19:06:00+00:00",
        "performer": [
          {
            "reference": "PractitionerRole/4a8b40d1-ddf3-48a3-8e07-b03d3fd56eda"
          }
        ],
        "valueQuantity": {
          "value": 0.3,
          "unit": "10*9/L",
          "system": "http://unitsofmeasure.org",
          "code": "10*9/L"
        },
        "referenceRange": [
          {
            "text": "0.2-1.0"
          }
        ]
      }
    },
    {
      "fullUrl": "https://terminz.azurewebsites.net/fhir/Observation/56cb65d9-c750-4ad6-b4ec-6fa46102a5d5",
      "resource": {
        "resourceType": "Observation",
        "id": "56cb65d9-c750-4ad6-b4ec-6fa46102a5d5",
        "status": "final",
        "category": [
          {
            "coding": [
              {
                "system": "http://terminology.hl7.org/CodeSystem/observation-category",
                "code": "laboratory"
              }
            ]
          }
        ],
        "code": {
          "text": "4070 (ESR)"
        },
        "subject": {
          "reference": "Patient/NNJ9186"
        },
        "effectiveDateTime": "2021-12-21T19:06:00+00:00",
        "performer": [
          {
            "reference": "PractitionerRole/4a8b40d1-ddf3-48a3-8e07-b03d3fd56eda"
          }
        ],
        "valueQuantity": {
          "value": 7,
          "unit": "mm/h",
          "system": "http://unitsofmeasure.org",
          "code": "mm/h"
        },
        "referenceRange": [
          {
            "text": "0-15"
          }
        ]
      }
    },
    {
      "fullUrl": "https://terminz.azurewebsites.net/fhir/Observation/15857908-a4da-4f3b-9364-d61d6394f262",
      "resource": {
        "resourceType": "Observation",
        "id": "15857908-a4da-4f3b-9364-d61d6394f262",
        "status": "final",
        "category": [
          {
            "coding": [
              {
                "system": "http://terminology.hl7.org/CodeSystem/observation-category",
                "code": "laboratory"
              }
            ]
          }
        ],
        "code": {
          "coding": [
            {
              "system": "http://loinc.org",
              "code": "20570-8",
              "display": "Hematocrit [Volume Fraction] of Blood"
            }
          ]
        },
        "subject": {
          "reference": "Patient/NNJ9186"
        },
        "effectiveDateTime": "2021-12-21T19:06:00+00:00",
        "performer": [
          {
            "reference": "PractitionerRole/4a8b40d1-ddf3-48a3-8e07-b03d3fd56eda"
          }
        ],
        "valueQuantity": {
          "value": 0.42,
          "unit": "L/L",
          "system": "http://unitsofmeasure.org",
          "code": "L/L"
        },
        "referenceRange": [
          {
            "text": "0.40-0.52"
          }
        ]
      }
    },
    {
      "fullUrl": "https://terminz.azurewebsites.net/fhir/Observation/fcb18d37-92c6-4f22-b183-d845ef2e9e80",
      "resource": {
        "resourceType": "Observation",
        "id": "fcb18d37-92c6-4f22-b183-d845ef2e9e80",
        "status": "final",
        "category": [
          {
            "coding": [
              {
                "system": "http://terminology.hl7.org/CodeSystem/observation-category",
                "code": "laboratory"
              }
            ]
          }
        ],
        "code": {
          "coding": [
            {
              "system": "http://loinc.org",
              "code": "26449-9",
              "display": "Eosinophils [#/volume] in Blood"
            }
          ]
        },
        "subject": {
          "reference": "Patient/NNJ9186"
        },
        "effectiveDateTime": "2021-12-21T19:06:00+00:00",
        "performer": [
          {
            "reference": "PractitionerRole/4a8b40d1-ddf3-48a3-8e07-b03d3fd56eda"
          }
        ],
        "valueQuantity": {
          "value": 0.1,
          "unit": "10*9/L",
          "system": "http://unitsofmeasure.org",
          "code": "10*9/L"
        },
        "referenceRange": [
          {
            "text": "0.0-0.5"
          }
        ]
      }
    },
    {
      "fullUrl": "https://terminz.azurewebsites.net/fhir/Observation/57e4ed4b-69af-48f4-9008-0ad7bcc8e5e2",
      "resource": {
        "resourceType": "Observation",
        "id": "57e4ed4b-69af-48f4-9008-0ad7bcc8e5e2",
        "status": "final",
        "category": [
          {
            "coding": [
              {
                "system": "http://terminology.hl7.org/CodeSystem/observation-category",
                "code": "laboratory"
              }
            ]
          }
        ],
        "code": {
          "coding": [
            {
              "system": "http://loinc.org",
              "code": "26464-8",
              "display": "Leukocytes [#/volume] in Blood"
            }
          ]
        },
        "subject": {
          "reference": "Patient/NNJ9186"
        },
        "effectiveDateTime": "2021-12-21T19:06:00+00:00",
        "performer": [
          {
            "reference": "PractitionerRole/4a8b40d1-ddf3-48a3-8e07-b03d3fd56eda"
          }
        ],
        "valueQuantity": {
          "value": 8.5,
          "unit": "10*9/L",
          "system": "http://unitsofmeasure.org",
          "code": "10*9/L"
        },
        "referenceRange": [
          {
            "text": "4.0-11.0"
          }
        ]
      }
    },
    {
      "fullUrl": "https://terminz.azurewebsites.net/fhir/Observation/4c3d9d99-02a7-46c5-be16-44f20d0473b1",
      "resource": {
        "resourceType": "Observation",
        "id": "4c3d9d99-02a7-46c5-be16-44f20d0473b1",
        "status": "final",
        "category": [
          {
            "coding": [
              {
                "system": "http://terminology.hl7.org/CodeSystem/observation-category",
                "code": "laboratory"
              }
            ]
          }
        ],
        "code": {
          "coding": [
            {
              "system": "http://loinc.org",
              "code": "26515-7",
              "display": "Platelets [#/volume] in Blood"
            }
          ]
        },
        "subject": {
          "reference": "Patient/NNJ9186"
        },
        "effectiveDateTime": "2021-12-21T19:06:00+00:00",
        "performer": [
          {
            "reference": "PractitionerRole/4a8b40d1-ddf3-48a3-8e07-b03d3fd56eda"
          }
        ],
        "valueQuantity": {
          "value": 209,
          "unit": "10*9/L",
          "system": "http://unitsofmeasure.org",
          "code": "10*9/L"
        },
        "referenceRange": [
          {
            "text": "150-400"
          }
        ]
      }
    },
    {
      "fullUrl": "https://terminz.azurewebsites.net/fhir/Observation/5b47ad72-845f-41ac-8084-1989e2fac744",
      "resource": {
        "resourceType": "Observation",
        "id": "5b47ad72-845f-41ac-8084-1989e2fac744",
        "status": "final",
        "category": [
          {
            "coding": [
              {
                "system": "http://terminology.hl7.org/CodeSystem/observation-category",
                "code": "laboratory"
              }
            ]
          }
        ],
        "code": {
          "coding": [
            {
              "system": "http://loinc.org",
              "code": "1988-5",
              "display": "C reactive protein [Mass/volume] in Serum or Plasma"
            }
          ]
        },
        "subject": {
          "reference": "Patient/NNJ9186"
        },
        "effectiveDateTime": "2021-12-21T18:06:00+00:00",
        "performer": [
          {
            "reference": "PractitionerRole/4a8b40d1-ddf3-48a3-8e07-b03d3fd56eda"
          }
        ],
        "valueQuantity": {
          "value": 0.3,
          "unit": "mg/L",
          "system": "http://unitsofmeasure.org",
          "code": "mg/L"
        },
        "referenceRange": [
          {
            "text": "0-8"
          }
        ]
      }
    },
    {
      "fullUrl": "https://terminz.azurewebsites.net/fhir/Observation/cf3bc47e-0f29-4298-9c71-345fcd4bae8c",
      "resource": {
        "resourceType": "Observation",
        "id": "cf3bc47e-0f29-4298-9c71-345fcd4bae8c",
        "status": "final",
        "category": [
          {
            "coding": [
              {
                "system": "http://terminology.hl7.org/CodeSystem/observation-category",
                "code": "laboratory"
              }
            ]
          }
        ],
        "code": {
          "coding": [
            {
              "system": "http://loinc.org",
              "code": "14933-6",
              "display": "Urate [Moles/volume] in Serum or Plasma"
            }
          ]
        },
        "subject": {
          "reference": "Patient/NNJ9186"
        },
        "effectiveDateTime": "2021-12-06T16:06:00+00:00",
        "performer": [
          {
            "reference": "PractitionerRole/4a8b40d1-ddf3-48a3-8e07-b03d3fd56eda"
          }
        ],
        "valueQuantity": {
          "value": 0.47,
          "unit": "mmol/L",
          "system": "http://unitsofmeasure.org",
          "code": "mmol/L"
        },
        "interpretation": [
          {
            "coding": [
              {
                "system": "http://terminology.hl7.org/CodeSystem/v3-ObservationInterpretation",
                "code": "H",
                "display": "High"
              }
            ]
          }
        ],
        "note": [
          {
            "text": "The urate target level for gout management is <0.36 mmol/L"
          },
          {
            "text": "L"
          }
        ],
        "referenceRange": [
          {
            "text": "0.23-0.42"
          }
        ]
      }
    },
    {
      "fullUrl": "https://terminz.azurewebsites.net/fhir/Observation/8fbdab54-dbe3-4553-9bf8-2963b67849e3",
      "resource": {
        "resourceType": "Observation",
        "id": "8fbdab54-dbe3-4553-9bf8-2963b67849e3",
        "status": "final",
        "category": [
          {
            "coding": [
              {
                "system": "http://terminology.hl7.org/CodeSystem/observation-category",
                "code": "laboratory"
              }
            ]
          }
        ],
        "code": {
          "coding": [
            {
              "system": "http://loinc.org",
              "code": "8061-4",
              "display": "Nuclear Ab [Presence] in Serum"
            }
          ]
        },
        "subject": {
          "reference": "Patient/NNJ9186"
        },
        "effectiveDateTime": "2021-07-13T15:05:00+00:00",
        "performer": [
          {
            "reference": "PractitionerRole/4a8b40d1-ddf3-48a3-8e07-b03d3fd56eda"
          }
        ],
        "valueString": "Positive",
        "referenceRange": [
          {
            "text": "NA"
          }
        ]
      }
    },
    {
      "fullUrl": "https://terminz.azurewebsites.net/fhir/Observation/0a55de04-5be9-4d94-9ce2-2e487832f670",
      "resource": {
        "resourceType": "Observation",
        "id": "0a55de04-5be9-4d94-9ce2-2e487832f670",
        "status": "final",
        "category": [
          {
            "coding": [
              {
                "system": "http://terminology.hl7.org/CodeSystem/observation-category",
                "code": "laboratory"
              }
            ]
          }
        ],
        "code": {
          "coding": [
            {
              "system": "http://loinc.org",
              "code": "29953-7",
              "display": "Nuclear Ab [Titer] in Serum"
            }
          ]
        },
        "subject": {
          "reference": "Patient/NNJ9186"
        },
        "effectiveDateTime": "2021-07-13T15:05:00+00:00",
        "performer": [
          {
            "reference": "PractitionerRole/4a8b40d1-ddf3-48a3-8e07-b03d3fd56eda"
          }
        ],
        "valueString": "Staining patternbr                                Speckled      1 in 320",
        "referenceRange": [
          {
            "text": "NA"
          }
        ]
      }
    },
    {
      "fullUrl": "https://terminz.azurewebsites.net/fhir/Observation/bbcac165-7da0-474f-ac05-c7dd20277ce8",
      "resource": {
        "resourceType": "Observation",
        "id": "bbcac165-7da0-474f-ac05-c7dd20277ce8",
        "status": "final",
        "category": [
          {
            "coding": [
              {
                "system": "http://terminology.hl7.org/CodeSystem/observation-category",
                "code": "laboratory"
              }
            ]
          }
        ],
        "code": {
          "text": "5796 (ANA COMMENT)"
        },
        "subject": {
          "reference": "Patient/NNJ9186"
        },
        "effectiveDateTime": "2021-07-13T15:05:00+00:00",
        "performer": [
          {
            "reference": "PractitionerRole/4a8b40d1-ddf3-48a3-8e07-b03d3fd56eda"
          }
        ],
        "valueString": "SPECKLED This pattern may be associated with connective tissue disease but also other non-specific chronic inflammatory conditions. Recommend interpretation in conjunction with ENA and dsDNA. This comment was added by TH (BMLS).",
        "referenceRange": [
          {
            "text": "NA"
          }
        ]
      }
    },
    {
      "fullUrl": "https://terminz.azurewebsites.net/fhir/Observation/f994e226-943e-4fe9-b652-f2eac464ad48",
      "resource": {
        "resourceType": "Observation",
        "id": "f994e226-943e-4fe9-b652-f2eac464ad48",
        "status": "final",
        "category": [
          {
            "coding": [
              {
                "system": "http://terminology.hl7.org/CodeSystem/observation-category",
                "code": "laboratory"
              }
            ]
          }
        ],
        "code": {
          "coding": [
            {
              "system": "http://loinc.org",
              "code": "1988-5",
              "display": "C reactive protein [Mass/volume] in Serum or Plasma"
            }
          ]
        },
        "subject": {
          "reference": "Patient/NNJ9186"
        },
        "effectiveDateTime": "2021-12-06T16:06:00+00:00",
        "performer": [
          {
            "reference": "PractitionerRole/4a8b40d1-ddf3-48a3-8e07-b03d3fd56eda"
          }
        ],
        "valueQuantity": {
          "value": 0.6,
          "unit": "mg/L",
          "system": "http://unitsofmeasure.org",
          "code": "mg/L"
        },
        "referenceRange": [
          {
            "text": "0-8"
          }
        ]
      }
    },
    {
      "fullUrl": "https://terminz.azurewebsites.net/fhir/Observation/3f6b4513-a862-48e1-92b0-bcb33dedca32",
      "resource": {
        "resourceType": "Observation",
        "id": "3f6b4513-a862-48e1-92b0-bcb33dedca32",
        "status": "final",
        "category": [
          {
            "coding": [
              {
                "system": "http://terminology.hl7.org/CodeSystem/observation-category",
                "code": "laboratory"
              }
            ]
          }
        ],
        "code": {
          "coding": [
            {
              "system": "http://loinc.org",
              "code": "14682-9",
              "display": "Creatinine [Moles/volume] in Serum or Plasma"
            }
          ]
        },
        "subject": {
          "reference": "Patient/NNJ9186"
        },
        "effectiveDateTime": "2021-07-09T19:06:00+00:00",
        "performer": [
          {
            "reference": "PractitionerRole/4a8b40d1-ddf3-48a3-8e07-b03d3fd56eda"
          }
        ],
        "valueQuantity": {
          "value": 77,
          "unit": "umol/L",
          "system": "http://unitsofmeasure.org",
          "code": "umol/L"
        },
        "referenceRange": [
          {
            "text": "60-105"
          }
        ]
      }
    },
    {
      "fullUrl": "https://terminz.azurewebsites.net/fhir/Observation/e230bd70-c588-4654-9481-56bb3ae29536",
      "resource": {
        "resourceType": "Observation",
        "id": "e230bd70-c588-4654-9481-56bb3ae29536",
        "status": "final",
        "category": [
          {
            "coding": [
              {
                "system": "http://terminology.hl7.org/CodeSystem/observation-category",
                "code": "laboratory"
              }
            ]
          }
        ],
        "code": {
          "coding": [
            {
              "system": "http://loinc.org",
              "code": "14933-6",
              "display": "Urate [Moles/volume] in Serum or Plasma"
            }
          ]
        },
        "subject": {
          "reference": "Patient/NNJ9186"
        },
        "effectiveDateTime": "2021-07-09T19:06:00+00:00",
        "performer": [
          {
            "reference": "PractitionerRole/4a8b40d1-ddf3-48a3-8e07-b03d3fd56eda"
          }
        ],
        "valueQuantity": {
          "value": 0.41,
          "unit": "mmol/L",
          "system": "http://unitsofmeasure.org",
          "code": "mmol/L"
        },
        "referenceRange": [
          {
            "text": "0.23-0.42"
          }
        ]
      }
    },
    {
      "fullUrl": "https://terminz.azurewebsites.net/fhir/Observation/dc6e17c6-0b04-47c5-b8ba-12fc123f05ec",
      "resource": {
        "resourceType": "Observation",
        "id": "dc6e17c6-0b04-47c5-b8ba-12fc123f05ec",
        "status": "final",
        "category": [
          {
            "coding": [
              {
                "system": "http://terminology.hl7.org/CodeSystem/observation-category",
                "code": "laboratory"
              }
            ]
          }
        ],
        "code": {
          "coding": [
            {
              "system": "http://loinc.org",
              "code": "2823-3",
              "display": "Potassium [Moles/volume] in Serum or Plasma"
            }
          ]
        },
        "subject": {
          "reference": "Patient/NNJ9186"
        },
        "effectiveDateTime": "2021-07-09T19:06:00+00:00",
        "performer": [
          {
            "reference": "PractitionerRole/4a8b40d1-ddf3-48a3-8e07-b03d3fd56eda"
          }
        ],
        "valueQuantity": {
          "value": 4.5,
          "unit": "mmol/L",
          "system": "http://unitsofmeasure.org",
          "code": "mmol/L"
        },
        "referenceRange": [
          {
            "text": "3.5-5.2"
          }
        ]
      }
    },
    {
      "fullUrl": "https://terminz.azurewebsites.net/fhir/Observation/037f6db4-da87-4bfb-a8dd-a1b281c4bbd8",
      "resource": {
        "resourceType": "Observation",
        "id": "037f6db4-da87-4bfb-a8dd-a1b281c4bbd8",
        "status": "final",
        "category": [
          {
            "coding": [
              {
                "system": "http://terminology.hl7.org/CodeSystem/observation-category",
                "code": "laboratory"
              }
            ]
          }
        ],
        "code": {
          "coding": [
            {
              "system": "http://loinc.org",
              "code": "62238-1",
              "display": "Glomerular filtration rate/1.73 sq M.predicted [Volume Rate/Area] in Serum, Plasma or Blood by Creatinine-based formula (CKD-EPI)"
            }
          ]
        },
        "subject": {
          "reference": "Patient/NNJ9186"
        },
        "effectiveDateTime": "2021-07-09T19:06:00+00:00",
        "performer": [
          {
            "reference": "PractitionerRole/4a8b40d1-ddf3-48a3-8e07-b03d3fd56eda"
          }
        ],
        "valueQuantity": {
          "value": 90,
          "unit": "mL/min",
          "system": "http://unitsofmeasure.org",
          "code": "mL/min"
        },
        "referenceRange": [
          {
            "text": ">60"
          }
        ]
      }
    },
    {
      "fullUrl": "https://terminz.azurewebsites.net/fhir/Observation/5a9c5674-ee07-4fbd-b46f-de4552ff905e",
      "resource": {
        "resourceType": "Observation",
        "id": "5a9c5674-ee07-4fbd-b46f-de4552ff905e",
        "status": "final",
        "category": [
          {
            "coding": [
              {
                "system": "http://terminology.hl7.org/CodeSystem/observation-category",
                "code": "laboratory"
              }
            ]
          }
        ],
        "code": {
          "coding": [
            {
              "system": "http://loinc.org",
              "code": "2951-2",
              "display": "Sodium [Moles/volume] in Serum or Plasma"
            }
          ]
        },
        "subject": {
          "reference": "Patient/NNJ9186"
        },
        "effectiveDateTime": "2021-07-09T19:06:00+00:00",
        "performer": [
          {
            "reference": "PractitionerRole/4a8b40d1-ddf3-48a3-8e07-b03d3fd56eda"
          }
        ],
        "valueQuantity": {
          "value": 140,
          "unit": "mmol/L",
          "system": "http://unitsofmeasure.org",
          "code": "mmol/L"
        },
        "referenceRange": [
          {
            "text": "135-145"
          }
        ]
      }
    },
    {
      "fullUrl": "https://terminz.azurewebsites.net/fhir/Observation/f1abaf95-e371-4a67-ad23-57e6dc5c3eb7",
      "resource": {
        "resourceType": "Observation",
        "id": "f1abaf95-e371-4a67-ad23-57e6dc5c3eb7",
        "status": "final",
        "category": [
          {
            "coding": [
              {
                "system": "http://terminology.hl7.org/CodeSystem/observation-category",
                "code": "laboratory"
              }
            ]
          }
        ],
        "code": {
          "coding": [
            {
              "system": "http://loinc.org",
              "code": "26464-8",
              "display": "Leukocytes [#/volume] in Blood"
            }
          ]
        },
        "subject": {
          "reference": "Patient/NNJ9186"
        },
        "effectiveDateTime": "2021-07-09T19:06:00+00:00",
        "performer": [
          {
            "reference": "PractitionerRole/4a8b40d1-ddf3-48a3-8e07-b03d3fd56eda"
          }
        ],
        "valueQuantity": {
          "value": 9.9,
          "unit": "10*9/L",
          "system": "http://unitsofmeasure.org",
          "code": "10*9/L"
        },
        "referenceRange": [
          {
            "text": "4.0-11.0"
          }
        ]
      }
    },
    {
      "fullUrl": "https://terminz.azurewebsites.net/fhir/Observation/ed0f1ec6-79d7-4838-8953-61258b1c5715",
      "resource": {
        "resourceType": "Observation",
        "id": "ed0f1ec6-79d7-4838-8953-61258b1c5715",
        "status": "final",
        "category": [
          {
            "coding": [
              {
                "system": "http://terminology.hl7.org/CodeSystem/observation-category",
                "code": "laboratory"
              }
            ]
          }
        ],
        "code": {
          "coding": [
            {
              "system": "http://loinc.org",
              "code": "30428-7",
              "display": "MCV [Entitic volume]"
            }
          ]
        },
        "subject": {
          "reference": "Patient/NNJ9186"
        },
        "effectiveDateTime": "2021-07-09T19:06:00+00:00",
        "performer": [
          {
            "reference": "PractitionerRole/4a8b40d1-ddf3-48a3-8e07-b03d3fd56eda"
          }
        ],
        "valueQuantity": {
          "value": 91,
          "unit": "fL",
          "system": "http://unitsofmeasure.org",
          "code": "fL"
        },
        "referenceRange": [
          {
            "text": "80-99"
          }
        ]
      }
    },
    {
      "fullUrl": "https://terminz.azurewebsites.net/fhir/Observation/092071ac-78f8-44fd-a204-3b0843928b7b",
      "resource": {
        "resourceType": "Observation",
        "id": "092071ac-78f8-44fd-a204-3b0843928b7b",
        "status": "final",
        "category": [
          {
            "coding": [
              {
                "system": "http://terminology.hl7.org/CodeSystem/observation-category",
                "code": "laboratory"
              }
            ]
          }
        ],
        "code": {
          "coding": [
            {
              "system": "http://loinc.org",
              "code": "26449-9",
              "display": "Eosinophils [#/volume] in Blood"
            }
          ]
        },
        "subject": {
          "reference": "Patient/NNJ9186"
        },
        "effectiveDateTime": "2021-07-09T19:06:00+00:00",
        "performer": [
          {
            "reference": "PractitionerRole/4a8b40d1-ddf3-48a3-8e07-b03d3fd56eda"
          }
        ],
        "valueQuantity": {
          "value": 0.1,
          "unit": "10*9/L",
          "system": "http://unitsofmeasure.org",
          "code": "10*9/L"
        },
        "referenceRange": [
          {
            "text": "0.0-0.5"
          }
        ]
      }
    },
    {
      "fullUrl": "https://terminz.azurewebsites.net/fhir/Observation/0898ddc9-3594-47db-af24-7076a8d34948",
      "resource": {
        "resourceType": "Observation",
        "id": "0898ddc9-3594-47db-af24-7076a8d34948",
        "status": "final",
        "category": [
          {
            "coding": [
              {
                "system": "http://terminology.hl7.org/CodeSystem/observation-category",
                "code": "laboratory"
              }
            ]
          }
        ],
        "code": {
          "coding": [
            {
              "system": "http://loinc.org",
              "code": "26474-7",
              "display": "Lymphocytes [#/volume] in Blood"
            }
          ]
        },
        "subject": {
          "reference": "Patient/NNJ9186"
        },
        "effectiveDateTime": "2021-07-09T19:06:00+00:00",
        "performer": [
          {
            "reference": "PractitionerRole/4a8b40d1-ddf3-48a3-8e07-b03d3fd56eda"
          }
        ],
        "valueQuantity": {
          "value": 0.9,
          "unit": "10*9/L",
          "system": "http://unitsofmeasure.org",
          "code": "10*9/L"
        },
        "interpretation": [
          {
            "coding": [
              {
                "system": "http://terminology.hl7.org/CodeSystem/v3-ObservationInterpretation",
                "code": "L",
                "display": "Low"
              }
            ]
          }
        ],
        "referenceRange": [
          {
            "text": "1.0-4.0"
          }
        ]
      }
    },
    {
      "fullUrl": "https://terminz.azurewebsites.net/fhir/Observation/c940ba28-7453-424c-86da-fe3f39c5227a",
      "resource": {
        "resourceType": "Observation",
        "id": "c940ba28-7453-424c-86da-fe3f39c5227a",
        "status": "final",
        "category": [
          {
            "coding": [
              {
                "system": "http://terminology.hl7.org/CodeSystem/observation-category",
                "code": "laboratory"
              }
            ]
          }
        ],
        "code": {
          "coding": [
            {
              "system": "http://loinc.org",
              "code": "26515-7",
              "display": "Platelets [#/volume] in Blood"
            }
          ]
        },
        "subject": {
          "reference": "Patient/NNJ9186"
        },
        "effectiveDateTime": "2021-07-09T19:06:00+00:00",
        "performer": [
          {
            "reference": "PractitionerRole/4a8b40d1-ddf3-48a3-8e07-b03d3fd56eda"
          }
        ],
        "valueQuantity": {
          "value": 240,
          "unit": "10*9/L",
          "system": "http://unitsofmeasure.org",
          "code": "10*9/L"
        },
        "referenceRange": [
          {
            "text": "150-400"
          }
        ]
      }
    },
    {
      "fullUrl": "https://terminz.azurewebsites.net/fhir/Observation/43727ce7-63e9-4e89-8640-66a1fe061817",
      "resource": {
        "resourceType": "Observation",
        "id": "43727ce7-63e9-4e89-8640-66a1fe061817",
        "status": "final",
        "category": [
          {
            "coding": [
              {
                "system": "http://terminology.hl7.org/CodeSystem/observation-category",
                "code": "laboratory"
              }
            ]
          }
        ],
        "code": {
          "coding": [
            {
              "system": "http://loinc.org",
              "code": "26484-6",
              "display": "Monocytes [#/volume] in Blood"
            }
          ]
        },
        "subject": {
          "reference": "Patient/NNJ9186"
        },
        "effectiveDateTime": "2021-07-09T19:06:00+00:00",
        "performer": [
          {
            "reference": "PractitionerRole/4a8b40d1-ddf3-48a3-8e07-b03d3fd56eda"
          }
        ],
        "valueQuantity": {
          "value": 0.3,
          "unit": "10*9/L",
          "system": "http://unitsofmeasure.org",
          "code": "10*9/L"
        },
        "referenceRange": [
          {
            "text": "0.2-1.0"
          }
        ]
      }
    },
    {
      "fullUrl": "https://terminz.azurewebsites.net/fhir/Observation/de45da02-7962-4ab8-b06d-6fc8cc153706",
      "resource": {
        "resourceType": "Observation",
        "id": "de45da02-7962-4ab8-b06d-6fc8cc153706",
        "status": "final",
        "category": [
          {
            "coding": [
              {
                "system": "http://terminology.hl7.org/CodeSystem/observation-category",
                "code": "laboratory"
              }
            ]
          }
        ],
        "code": {
          "coding": [
            {
              "system": "http://loinc.org",
              "code": "26444-0",
              "display": "Basophils [#/volume] in Blood"
            }
          ]
        },
        "subject": {
          "reference": "Patient/NNJ9186"
        },
        "effectiveDateTime": "2021-07-09T19:06:00+00:00",
        "performer": [
          {
            "reference": "PractitionerRole/4a8b40d1-ddf3-48a3-8e07-b03d3fd56eda"
          }
        ],
        "valueQuantity": {
          "value": 0.1,
          "unit": "10*9/L",
          "system": "http://unitsofmeasure.org",
          "code": "10*9/L"
        },
        "referenceRange": [
          {
            "text": "0-0.2"
          }
        ]
      }
    },
    {
      "fullUrl": "https://terminz.azurewebsites.net/fhir/Observation/8743c476-96a9-42ff-9968-ccc56c5207fc",
      "resource": {
        "resourceType": "Observation",
        "id": "8743c476-96a9-42ff-9968-ccc56c5207fc",
        "status": "final",
        "category": [
          {
            "coding": [
              {
                "system": "http://terminology.hl7.org/CodeSystem/observation-category",
                "code": "laboratory"
              }
            ]
          }
        ],
        "code": {
          "coding": [
            {
              "system": "http://loinc.org",
              "code": "28539-5",
              "display": "MCH [Entitic mass]"
            }
          ]
        },
        "subject": {
          "reference": "Patient/NNJ9186"
        },
        "effectiveDateTime": "2021-07-09T19:06:00+00:00",
        "performer": [
          {
            "reference": "PractitionerRole/4a8b40d1-ddf3-48a3-8e07-b03d3fd56eda"
          }
        ],
        "valueQuantity": {
          "value": 31,
          "unit": "pg",
          "system": "http://unitsofmeasure.org",
          "code": "pg"
        },
        "referenceRange": [
          {
            "text": "27-33"
          }
        ]
      }
    },
    {
      "fullUrl": "https://terminz.azurewebsites.net/fhir/Observation/dab79972-aaca-4cb1-9994-320224ccfce9",
      "resource": {
        "resourceType": "Observation",
        "id": "dab79972-aaca-4cb1-9994-320224ccfce9",
        "status": "final",
        "category": [
          {
            "coding": [
              {
                "system": "http://terminology.hl7.org/CodeSystem/observation-category",
                "code": "laboratory"
              }
            ]
          }
        ],
        "code": {
          "text": "4070 (ESR)"
        },
        "subject": {
          "reference": "Patient/NNJ9186"
        },
        "effectiveDateTime": "2021-07-09T19:06:00+00:00",
        "performer": [
          {
            "reference": "PractitionerRole/4a8b40d1-ddf3-48a3-8e07-b03d3fd56eda"
          }
        ],
        "valueQuantity": {
          "value": 22,
          "unit": "mm/h",
          "system": "http://unitsofmeasure.org",
          "code": "mm/h"
        },
        "interpretation": [
          {
            "coding": [
              {
                "system": "http://terminology.hl7.org/CodeSystem/v3-ObservationInterpretation",
                "code": "H",
                "display": "High"
              }
            ]
          }
        ],
        "referenceRange": [
          {
            "text": "0-15"
          }
        ]
      }
    },
    {
      "fullUrl": "https://terminz.azurewebsites.net/fhir/Observation/d1e5141e-335c-4385-bf9b-34dde3d657a7",
      "resource": {
        "resourceType": "Observation",
        "id": "d1e5141e-335c-4385-bf9b-34dde3d657a7",
        "status": "final",
        "category": [
          {
            "coding": [
              {
                "system": "http://terminology.hl7.org/CodeSystem/observation-category",
                "code": "laboratory"
              }
            ]
          }
        ],
        "code": {
          "coding": [
            {
              "system": "http://loinc.org",
              "code": "30449-3",
              "display": "Neutrophils.hypersegmented [#/volume] in Blood"
            }
          ]
        },
        "subject": {
          "reference": "Patient/NNJ9186"
        },
        "effectiveDateTime": "2021-07-09T19:06:00+00:00",
        "performer": [
          {
            "reference": "PractitionerRole/4a8b40d1-ddf3-48a3-8e07-b03d3fd56eda"
          }
        ],
        "valueQuantity": {
          "value": 8.6,
          "unit": "10*9/L",
          "system": "http://unitsofmeasure.org",
          "code": "10*9/L"
        },
        "interpretation": [
          {
            "coding": [
              {
                "system": "http://terminology.hl7.org/CodeSystem/v3-ObservationInterpretation",
                "code": "H",
                "display": "High"
              }
            ]
          }
        ],
        "referenceRange": [
          {
            "text": "1.9-7.5"
          }
        ]
      }
    },
    {
      "fullUrl": "https://terminz.azurewebsites.net/fhir/Observation/1840bf7b-72f9-46c1-aecb-083633749a32",
      "resource": {
        "resourceType": "Observation",
        "id": "1840bf7b-72f9-46c1-aecb-083633749a32",
        "status": "final",
        "category": [
          {
            "coding": [
              {
                "system": "http://terminology.hl7.org/CodeSystem/observation-category",
                "code": "laboratory"
              }
            ]
          }
        ],
        "code": {
          "coding": [
            {
              "system": "http://loinc.org",
              "code": "718-7",
              "display": "Hemoglobin [Mass/volume] in Blood"
            }
          ]
        },
        "subject": {
          "reference": "Patient/NNJ9186"
        },
        "effectiveDateTime": "2021-07-09T19:06:00+00:00",
        "performer": [
          {
            "reference": "PractitionerRole/4a8b40d1-ddf3-48a3-8e07-b03d3fd56eda"
          }
        ],
        "valueQuantity": {
          "value": 142,
          "unit": "g/L",
          "system": "http://unitsofmeasure.org",
          "code": "g/L"
        },
        "referenceRange": [
          {
            "text": "130-175"
          }
        ]
      }
    },
    {
      "fullUrl": "https://terminz.azurewebsites.net/fhir/Observation/1a5eb308-864a-487c-bd1f-8d0fee2ca804",
      "resource": {
        "resourceType": "Observation",
        "id": "1a5eb308-864a-487c-bd1f-8d0fee2ca804",
        "status": "final",
        "category": [
          {
            "coding": [
              {
                "system": "http://terminology.hl7.org/CodeSystem/observation-category",
                "code": "laboratory"
              }
            ]
          }
        ],
        "code": {
          "coding": [
            {
              "system": "http://loinc.org",
              "code": "20570-8",
              "display": "Hematocrit [Volume Fraction] of Blood"
            }
          ]
        },
        "subject": {
          "reference": "Patient/NNJ9186"
        },
        "effectiveDateTime": "2021-07-09T19:06:00+00:00",
        "performer": [
          {
            "reference": "PractitionerRole/4a8b40d1-ddf3-48a3-8e07-b03d3fd56eda"
          }
        ],
        "valueQuantity": {
          "value": 0.42,
          "unit": "L/L",
          "system": "http://unitsofmeasure.org",
          "code": "L/L"
        },
        "referenceRange": [
          {
            "text": "0.40-0.52"
          }
        ]
      }
    },
    {
      "fullUrl": "https://terminz.azurewebsites.net/fhir/Observation/2ded3a6d-15ee-46ab-aed1-47e3cbdc1a3e",
      "resource": {
        "resourceType": "Observation",
        "id": "2ded3a6d-15ee-46ab-aed1-47e3cbdc1a3e",
        "status": "final",
        "category": [
          {
            "coding": [
              {
                "system": "http://terminology.hl7.org/CodeSystem/observation-category",
                "code": "laboratory"
              }
            ]
          }
        ],
        "code": {
          "coding": [
            {
              "system": "http://loinc.org",
              "code": "14933-6",
              "display": "Urate [Moles/volume] in Serum or Plasma"
            }
          ]
        },
        "subject": {
          "reference": "Patient/NNJ9186"
        },
        "effectiveDateTime": "2021-12-21T18:06:00+00:00",
        "performer": [
          {
            "reference": "PractitionerRole/4a8b40d1-ddf3-48a3-8e07-b03d3fd56eda"
          }
        ],
        "valueQuantity": {
          "value": 0.39,
          "unit": "mmol/L",
          "system": "http://unitsofmeasure.org",
          "code": "mmol/L"
        },
        "note": [
          {
            "text": "The urate target level for gout management is <0.36 mmol/L"
          },
          {
            "text": "L"
          }
        ],
        "referenceRange": [
          {
            "text": "0.23-0.42"
          }
        ]
      }
    },
    {
      "fullUrl": "https://terminz.azurewebsites.net/fhir/Observation/90a47e41-89fd-43b9-aa0f-bb5cd98d78d0",
      "resource": {
        "resourceType": "Observation",
        "id": "90a47e41-89fd-43b9-aa0f-bb5cd98d78d0",
        "status": "final",
        "category": [
          {
            "coding": [
              {
                "system": "http://terminology.hl7.org/CodeSystem/observation-category",
                "code": "laboratory"
              }
            ]
          }
        ],
        "code": {
          "coding": [
            {
              "system": "http://loinc.org",
              "code": "2157-6",
              "display": "Creatine kinase [Enzymatic activity/volume] in Serum or Plasma"
            }
          ]
        },
        "subject": {
          "reference": "Patient/NNJ9186"
        },
        "effectiveDateTime": "2021-07-09T19:06:00+00:00",
        "performer": [
          {
            "reference": "PractitionerRole/4a8b40d1-ddf3-48a3-8e07-b03d3fd56eda"
          }
        ],
        "valueQuantity": {
          "value": 37,
          "unit": "U/L",
          "system": "http://unitsofmeasure.org",
          "code": "U/L"
        },
        "referenceRange": [
          {
            "text": "0-220"
          }
        ]
      }
    },
    {
      "fullUrl": "https://terminz.azurewebsites.net/fhir/Observation/d08b2a07-b059-48c8-ae48-a1ed607aa655",
      "resource": {
        "resourceType": "Observation",
        "id": "d08b2a07-b059-48c8-ae48-a1ed607aa655",
        "status": "final",
        "category": [
          {
            "coding": [
              {
                "system": "http://terminology.hl7.org/CodeSystem/observation-category",
                "code": "laboratory"
              }
            ]
          }
        ],
        "code": {
          "text": "4070 (ESR)"
        },
        "subject": {
          "reference": "Patient/NNJ9186"
        },
        "effectiveDateTime": "2022-01-10T16:05:00+00:00",
        "performer": [
          {
            "reference": "PractitionerRole/4a8b40d1-ddf3-48a3-8e07-b03d3fd56eda"
          }
        ],
        "valueQuantity": {
          "value": 10,
          "unit": "mm/h",
          "system": "http://unitsofmeasure.org",
          "code": "mm/h"
        },
        "referenceRange": [
          {
            "text": "0-15"
          }
        ]
      }
    },
    {
      "fullUrl": "https://terminz.azurewebsites.net/fhir/Observation/1d8e2b07-d375-43aa-9aa0-e08a586eacea",
      "resource": {
        "resourceType": "Observation",
        "id": "1d8e2b07-d375-43aa-9aa0-e08a586eacea",
        "status": "final",
        "category": [
          {
            "coding": [
              {
                "system": "http://terminology.hl7.org/CodeSystem/observation-category",
                "code": "laboratory"
              }
            ]
          }
        ],
        "code": {
          "coding": [
            {
              "system": "http://loinc.org",
              "code": "26484-6",
              "display": "Monocytes [#/volume] in Blood"
            }
          ]
        },
        "subject": {
          "reference": "Patient/NNJ9186"
        },
        "effectiveDateTime": "2022-01-10T16:05:00+00:00",
        "performer": [
          {
            "reference": "PractitionerRole/4a8b40d1-ddf3-48a3-8e07-b03d3fd56eda"
          }
        ],
        "valueQuantity": {
          "value": 0.4,
          "unit": "10*9/L",
          "system": "http://unitsofmeasure.org",
          "code": "10*9/L"
        },
        "referenceRange": [
          {
            "text": "0.2-1.0"
          }
        ]
      }
    },
    {
      "fullUrl": "https://terminz.azurewebsites.net/fhir/Observation/3ecebec9-b326-48a4-a18d-045c080ab1e9",
      "resource": {
        "resourceType": "Observation",
        "id": "3ecebec9-b326-48a4-a18d-045c080ab1e9",
        "status": "final",
        "category": [
          {
            "coding": [
              {
                "system": "http://terminology.hl7.org/CodeSystem/observation-category",
                "code": "laboratory"
              }
            ]
          }
        ],
        "code": {
          "coding": [
            {
              "system": "http://loinc.org",
              "code": "26449-9",
              "display": "Eosinophils [#/volume] in Blood"
            }
          ]
        },
        "subject": {
          "reference": "Patient/NNJ9186"
        },
        "effectiveDateTime": "2022-01-10T16:05:00+00:00",
        "performer": [
          {
            "reference": "PractitionerRole/4a8b40d1-ddf3-48a3-8e07-b03d3fd56eda"
          }
        ],
        "valueQuantity": {
          "value": 0.1,
          "unit": "10*9/L",
          "system": "http://unitsofmeasure.org",
          "code": "10*9/L"
        },
        "referenceRange": [
          {
            "text": "0.0-0.5"
          }
        ]
      }
    },
    {
      "fullUrl": "https://terminz.azurewebsites.net/fhir/Observation/604f5272-5045-48cb-a9b9-fadde4bd9a09",
      "resource": {
        "resourceType": "Observation",
        "id": "604f5272-5045-48cb-a9b9-fadde4bd9a09",
        "status": "final",
        "category": [
          {
            "coding": [
              {
                "system": "http://terminology.hl7.org/CodeSystem/observation-category",
                "code": "laboratory"
              }
            ]
          }
        ],
        "code": {
          "coding": [
            {
              "system": "http://loinc.org",
              "code": "30449-3",
              "display": "Neutrophils.hypersegmented [#/volume] in Blood"
            }
          ]
        },
        "subject": {
          "reference": "Patient/NNJ9186"
        },
        "effectiveDateTime": "2022-01-10T16:05:00+00:00",
        "performer": [
          {
            "reference": "PractitionerRole/4a8b40d1-ddf3-48a3-8e07-b03d3fd56eda"
          }
        ],
        "valueQuantity": {
          "value": 6.3,
          "unit": "10*9/L",
          "system": "http://unitsofmeasure.org",
          "code": "10*9/L"
        },
        "referenceRange": [
          {
            "text": "1.9-7.5"
          }
        ]
      }
    },
    {
      "fullUrl": "https://terminz.azurewebsites.net/fhir/Observation/34fe4ebf-3b3a-44d0-ac06-413d50c4cbd9",
      "resource": {
        "resourceType": "Observation",
        "id": "34fe4ebf-3b3a-44d0-ac06-413d50c4cbd9",
        "status": "final",
        "category": [
          {
            "coding": [
              {
                "system": "http://terminology.hl7.org/CodeSystem/observation-category",
                "code": "laboratory"
              }
            ]
          }
        ],
        "code": {
          "coding": [
            {
              "system": "http://loinc.org",
              "code": "28539-5",
              "display": "MCH [Entitic mass]"
            }
          ]
        },
        "subject": {
          "reference": "Patient/NNJ9186"
        },
        "effectiveDateTime": "2022-01-10T16:05:00+00:00",
        "performer": [
          {
            "reference": "PractitionerRole/4a8b40d1-ddf3-48a3-8e07-b03d3fd56eda"
          }
        ],
        "valueQuantity": {
          "value": 31,
          "unit": "pg",
          "system": "http://unitsofmeasure.org",
          "code": "pg"
        },
        "referenceRange": [
          {
            "text": "27-33"
          }
        ]
      }
    },
    {
      "fullUrl": "https://terminz.azurewebsites.net/fhir/Observation/14f71f18-a861-44c7-9183-cab70f397ca4",
      "resource": {
        "resourceType": "Observation",
        "id": "14f71f18-a861-44c7-9183-cab70f397ca4",
        "status": "final",
        "category": [
          {
            "coding": [
              {
                "system": "http://terminology.hl7.org/CodeSystem/observation-category",
                "code": "laboratory"
              }
            ]
          }
        ],
        "code": {
          "coding": [
            {
              "system": "http://loinc.org",
              "code": "30428-7",
              "display": "MCV [Entitic volume]"
            }
          ]
        },
        "subject": {
          "reference": "Patient/NNJ9186"
        },
        "effectiveDateTime": "2022-01-10T16:05:00+00:00",
        "performer": [
          {
            "reference": "PractitionerRole/4a8b40d1-ddf3-48a3-8e07-b03d3fd56eda"
          }
        ],
        "valueQuantity": {
          "value": 91,
          "unit": "fL",
          "system": "http://unitsofmeasure.org",
          "code": "fL"
        },
        "referenceRange": [
          {
            "text": "80-99"
          }
        ]
      }
    },
    {
      "fullUrl": "https://terminz.azurewebsites.net/fhir/Observation/5bc8821c-fd78-46e0-9c19-cede5b4a776b",
      "resource": {
        "resourceType": "Observation",
        "id": "5bc8821c-fd78-46e0-9c19-cede5b4a776b",
        "status": "final",
        "category": [
          {
            "coding": [
              {
                "system": "http://terminology.hl7.org/CodeSystem/observation-category",
                "code": "laboratory"
              }
            ]
          }
        ],
        "code": {
          "coding": [
            {
              "system": "http://loinc.org",
              "code": "26474-7",
              "display": "Lymphocytes [#/volume] in Blood"
            }
          ]
        },
        "subject": {
          "reference": "Patient/NNJ9186"
        },
        "effectiveDateTime": "2022-01-10T16:05:00+00:00",
        "performer": [
          {
            "reference": "PractitionerRole/4a8b40d1-ddf3-48a3-8e07-b03d3fd56eda"
          }
        ],
        "valueQuantity": {
          "value": 1.1,
          "unit": "10*9/L",
          "system": "http://unitsofmeasure.org",
          "code": "10*9/L"
        },
        "referenceRange": [
          {
            "text": "1.0-4.0"
          }
        ]
      }
    },
    {
      "fullUrl": "https://terminz.azurewebsites.net/fhir/Observation/ebc7654c-ffad-486b-9c9c-8e7c06b300c8",
      "resource": {
        "resourceType": "Observation",
        "id": "ebc7654c-ffad-486b-9c9c-8e7c06b300c8",
        "status": "final",
        "category": [
          {
            "coding": [
              {
                "system": "http://terminology.hl7.org/CodeSystem/observation-category",
                "code": "laboratory"
              }
            ]
          }
        ],
        "code": {
          "coding": [
            {
              "system": "http://loinc.org",
              "code": "26464-8",
              "display": "Leukocytes [#/volume] in Blood"
            }
          ]
        },
        "subject": {
          "reference": "Patient/NNJ9186"
        },
        "effectiveDateTime": "2022-01-10T16:05:00+00:00",
        "performer": [
          {
            "reference": "PractitionerRole/4a8b40d1-ddf3-48a3-8e07-b03d3fd56eda"
          }
        ],
        "valueQuantity": {
          "value": 7.9,
          "unit": "10*9/L",
          "system": "http://unitsofmeasure.org",
          "code": "10*9/L"
        },
        "referenceRange": [
          {
            "text": "4.0-11.0"
          }
        ]
      }
    },
    {
      "fullUrl": "https://terminz.azurewebsites.net/fhir/Observation/000b26ec-d83a-4a92-b9f9-7d852198b5b8",
      "resource": {
        "resourceType": "Observation",
        "id": "000b26ec-d83a-4a92-b9f9-7d852198b5b8",
        "status": "final",
        "category": [
          {
            "coding": [
              {
                "system": "http://terminology.hl7.org/CodeSystem/observation-category",
                "code": "laboratory"
              }
            ]
          }
        ],
        "code": {
          "coding": [
            {
              "system": "http://loinc.org",
              "code": "26444-0",
              "display": "Basophils [#/volume] in Blood"
            }
          ]
        },
        "subject": {
          "reference": "Patient/NNJ9186"
        },
        "effectiveDateTime": "2022-01-10T16:05:00+00:00",
        "performer": [
          {
            "reference": "PractitionerRole/4a8b40d1-ddf3-48a3-8e07-b03d3fd56eda"
          }
        ],
        "valueQuantity": {
          "value": 0.1,
          "unit": "10*9/L",
          "system": "http://unitsofmeasure.org",
          "code": "10*9/L"
        },
        "referenceRange": [
          {
            "text": "0-0.2"
          }
        ]
      }
    },
    {
      "fullUrl": "https://terminz.azurewebsites.net/fhir/Observation/8cad3441-d42c-444b-959f-2c216eef5c45",
      "resource": {
        "resourceType": "Observation",
        "id": "8cad3441-d42c-444b-959f-2c216eef5c45",
        "status": "final",
        "category": [
          {
            "coding": [
              {
                "system": "http://terminology.hl7.org/CodeSystem/observation-category",
                "code": "laboratory"
              }
            ]
          }
        ],
        "code": {
          "coding": [
            {
              "system": "http://loinc.org",
              "code": "718-7",
              "display": "Hemoglobin [Mass/volume] in Blood"
            }
          ]
        },
        "subject": {
          "reference": "Patient/NNJ9186"
        },
        "effectiveDateTime": "2022-01-10T16:05:00+00:00",
        "performer": [
          {
            "reference": "PractitionerRole/4a8b40d1-ddf3-48a3-8e07-b03d3fd56eda"
          }
        ],
        "valueQuantity": {
          "value": 137,
          "unit": "g/L",
          "system": "http://unitsofmeasure.org",
          "code": "g/L"
        },
        "referenceRange": [
          {
            "text": "130-175"
          }
        ]
      }
    },
    {
      "fullUrl": "https://terminz.azurewebsites.net/fhir/Observation/8e83e483-5140-4f94-94de-d565394327ca",
      "resource": {
        "resourceType": "Observation",
        "id": "8e83e483-5140-4f94-94de-d565394327ca",
        "status": "final",
        "category": [
          {
            "coding": [
              {
                "system": "http://terminology.hl7.org/CodeSystem/observation-category",
                "code": "laboratory"
              }
            ]
          }
        ],
        "code": {
          "coding": [
            {
              "system": "http://loinc.org",
              "code": "26515-7",
              "display": "Platelets [#/volume] in Blood"
            }
          ]
        },
        "subject": {
          "reference": "Patient/NNJ9186"
        },
        "effectiveDateTime": "2022-01-10T16:05:00+00:00",
        "performer": [
          {
            "reference": "PractitionerRole/4a8b40d1-ddf3-48a3-8e07-b03d3fd56eda"
          }
        ],
        "valueQuantity": {
          "value": 214,
          "unit": "10*9/L",
          "system": "http://unitsofmeasure.org",
          "code": "10*9/L"
        },
        "referenceRange": [
          {
            "text": "150-400"
          }
        ]
      }
    },
    {
      "fullUrl": "https://terminz.azurewebsites.net/fhir/Observation/a79cd8fa-c9f1-46fc-8f01-74e7cd1537f4",
      "resource": {
        "resourceType": "Observation",
        "id": "a79cd8fa-c9f1-46fc-8f01-74e7cd1537f4",
        "status": "final",
        "category": [
          {
            "coding": [
              {
                "system": "http://terminology.hl7.org/CodeSystem/observation-category",
                "code": "laboratory"
              }
            ]
          }
        ],
        "code": {
          "coding": [
            {
              "system": "http://loinc.org",
              "code": "20570-8",
              "display": "Hematocrit [Volume Fraction] of Blood"
            }
          ]
        },
        "subject": {
          "reference": "Patient/NNJ9186"
        },
        "effectiveDateTime": "2022-01-10T16:05:00+00:00",
        "performer": [
          {
            "reference": "PractitionerRole/4a8b40d1-ddf3-48a3-8e07-b03d3fd56eda"
          }
        ],
        "valueQuantity": {
          "value": 0.4,
          "unit": "L/L",
          "system": "http://unitsofmeasure.org",
          "code": "L/L"
        },
        "referenceRange": [
          {
            "text": "0.40-0.52"
          }
        ]
      }
    },
    {
      "fullUrl": "https://terminz.azurewebsites.net/fhir/Observation/d8ee6731-9c04-4481-8a91-a58bf2544371",
      "resource": {
        "resourceType": "Observation",
        "id": "d8ee6731-9c04-4481-8a91-a58bf2544371",
        "status": "final",
        "category": [
          {
            "coding": [
              {
                "system": "http://terminology.hl7.org/CodeSystem/observation-category",
                "code": "laboratory"
              }
            ]
          }
        ],
        "code": {
          "text": "3712 (Screening FIT)"
        },
        "subject": {
          "reference": "Patient/NNJ9186"
        },
        "effectiveDateTime": "2021-12-10T21:00:00+00:00",
        "performer": [
          {
            "reference": "PractitionerRole/4a8b40d1-ddf3-48a3-8e07-b03d3fd56eda"
          }
        ],
        "valueString": "Negative",
        "note": [
          {
            "text": "This is a result from the National Bowel Screening Programme."
          },
          {
            "text": "L"
          }
        ],
        "referenceRange": [
          {
            "text": "NA"
          }
        ]
      }
    },
    {
      "fullUrl": "https://terminz.azurewebsites.net/fhir/Observation/a0f9d356-b56e-4394-8ca6-3c802c5f7460",
      "resource": {
        "resourceType": "Observation",
        "id": "a0f9d356-b56e-4394-8ca6-3c802c5f7460",
        "status": "final",
        "category": [
          {
            "coding": [
              {
                "system": "http://terminology.hl7.org/CodeSystem/observation-category",
                "code": "laboratory"
              }
            ]
          }
        ],
        "code": {
          "coding": [
            {
              "system": "http://loinc.org",
              "code": "1988-5",
              "display": "C reactive protein [Mass/volume] in Serum or Plasma"
            }
          ]
        },
        "subject": {
          "reference": "Patient/NNJ9186"
        },
        "effectiveDateTime": "2021-07-09T19:06:00+00:00",
        "performer": [
          {
            "reference": "PractitionerRole/4a8b40d1-ddf3-48a3-8e07-b03d3fd56eda"
          }
        ],
        "valueQuantity": {
          "value": 2.8,
          "unit": "mg/L",
          "system": "http://unitsofmeasure.org",
          "code": "mg/L"
        },
        "referenceRange": [
          {
            "text": "0-8"
          }
        ]
      }
    },
    {
      "fullUrl": "https://terminz.azurewebsites.net/fhir/Observation/5e84bba8-8f24-4e34-a886-d272c1e0249c",
      "resource": {
        "resourceType": "Observation",
        "id": "5e84bba8-8f24-4e34-a886-d272c1e0249c",
        "status": "final",
        "category": [
          {
            "coding": [
              {
                "system": "http://terminology.hl7.org/CodeSystem/observation-category",
                "code": "imaging"
              }
            ]
          }
        ],
        "code": {
          "text": "RADXR (Radiology X-RAY)"
        },
        "subject": {
          "reference": "Patient/NNJ9186"
        },
        "effectiveDateTime": "2021-07-26T14:32:00+00:00",
        "performer": [
          {
            "reference": "PractitionerRole/d72d0d4c-8dc3-4568-9b4d-f09bc571df77"
          }
        ],
        "valueString": "This report is for Dr H. CoorayReferred ByDr H. CoorayX-RAY BOTH HANDS 26072021 Reference 3228857 NHI NNJ9186IndicationPain and stiffness in both hands for some weeks. ? OAFindingsNormal bone density. There are bilateral degenerative changes presentin the STT joints more marked on the left side than the right andminor degenerative changes in the 1st carpometacarpal joint. The MCPjoints and interphalangeal joints outline normally. No soft tissuecalcification or periarticular erosions.ConclusionMinor degenerative changes in the STT joints bilaterally and to alesser degree in the 1st carpometacarpal joints consistent withdeveloping osteoarthritisRadiologist Dr John Dumble",
        "referenceRange": [
          {
            "text": "NA"
          }
        ]
      }
    },
    {
      "fullUrl": "https://terminz.azurewebsites.net/fhir/Observation/c355d4f7-b3d9-4333-920d-771a83c9c625",
      "resource": {
        "resourceType": "Observation",
        "id": "c355d4f7-b3d9-4333-920d-771a83c9c625",
        "status": "final",
        "category": [
          {
            "coding": [
              {
                "system": "http://terminology.hl7.org/CodeSystem/observation-category",
                "code": "laboratory"
              }
            ]
          }
        ],
        "code": {
          "text": "5250 (Tissue Autoantibody Screen)"
        },
        "subject": {
          "reference": "Patient/NNJ9186"
        },
        "effectiveDateTime": "2021-07-12T15:05:00+00:00",
        "performer": [
          {
            "reference": "PractitionerRole/4a8b40d1-ddf3-48a3-8e07-b03d3fd56eda"
          }
        ],
        "valueString": "Gastric Parietal Cell     Not detectedbr  Mitochondrial          Not detected                20br  Smooth Muscle          Not detected                20",
        "referenceRange": [
          {
            "text": "NA"
          }
        ]
      }
    },
    {
      "fullUrl": "https://terminz.azurewebsites.net/fhir/Observation/b6990585-f5c2-458b-8fe3-369569cced23",
      "resource": {
        "resourceType": "Observation",
        "id": "b6990585-f5c2-458b-8fe3-369569cced23",
        "status": "final",
        "category": [
          {
            "coding": [
              {
                "system": "http://terminology.hl7.org/CodeSystem/observation-category",
                "code": "laboratory"
              }
            ]
          }
        ],
        "code": {
          "coding": [
            {
              "system": "http://loinc.org",
              "code": "8094-5",
              "display": "Sjogrens syndrome-B extractable nuclear Ab [Presence] in Serum"
            }
          ]
        },
        "subject": {
          "reference": "Patient/NNJ9186"
        },
        "effectiveDateTime": "2021-07-19T15:35:00+00:00",
        "performer": [
          {
            "reference": "PractitionerRole/4a8b40d1-ddf3-48a3-8e07-b03d3fd56eda"
          }
        ],
        "valueString": "Negative",
        "referenceRange": [
          {
            "text": "NA"
          }
        ]
      }
    },
    {
      "fullUrl": "https://terminz.azurewebsites.net/fhir/Observation/d6c9fdfd-1a20-44d5-b1e7-b0fd5c4961ff",
      "resource": {
        "resourceType": "Observation",
        "id": "d6c9fdfd-1a20-44d5-b1e7-b0fd5c4961ff",
        "status": "final",
        "category": [
          {
            "coding": [
              {
                "system": "http://terminology.hl7.org/CodeSystem/observation-category",
                "code": "laboratory"
              }
            ]
          }
        ],
        "code": {
          "coding": [
            {
              "system": "http://loinc.org",
              "code": "8076-2",
              "display": "Jo-1 extractable nuclear Ab [Presence] in Serum"
            }
          ]
        },
        "subject": {
          "reference": "Patient/NNJ9186"
        },
        "effectiveDateTime": "2021-07-19T15:35:00+00:00",
        "performer": [
          {
            "reference": "PractitionerRole/4a8b40d1-ddf3-48a3-8e07-b03d3fd56eda"
          }
        ],
        "valueString": "Negative",
        "referenceRange": [
          {
            "text": "NA"
          }
        ]
      }
    },
    {
      "fullUrl": "https://terminz.azurewebsites.net/fhir/Observation/4c3beeb7-460c-47b7-8904-7b2873c2355e",
      "resource": {
        "resourceType": "Observation",
        "id": "4c3beeb7-460c-47b7-8904-7b2873c2355e",
        "status": "final",
        "category": [
          {
            "coding": [
              {
                "system": "http://terminology.hl7.org/CodeSystem/observation-category",
                "code": "laboratory"
              }
            ]
          }
        ],
        "code": {
          "coding": [
            {
              "system": "http://loinc.org",
              "code": "8093-7",
              "display": "Sjogrens syndrome-A extractable nuclear Ab [Presence] in Serum"
            }
          ]
        },
        "subject": {
          "reference": "Patient/NNJ9186"
        },
        "effectiveDateTime": "2021-07-19T15:35:00+00:00",
        "performer": [
          {
            "reference": "PractitionerRole/4a8b40d1-ddf3-48a3-8e07-b03d3fd56eda"
          }
        ],
        "valueString": "Negative",
        "referenceRange": [
          {
            "text": "NA"
          }
        ]
      }
    },
    {
      "fullUrl": "https://terminz.azurewebsites.net/fhir/Observation/e0b36c11-11be-4460-8f7f-457b6691ec62",
      "resource": {
        "resourceType": "Observation",
        "id": "e0b36c11-11be-4460-8f7f-457b6691ec62",
        "status": "final",
        "category": [
          {
            "coding": [
              {
                "system": "http://terminology.hl7.org/CodeSystem/observation-category",
                "code": "laboratory"
              }
            ]
          }
        ],
        "code": {
          "coding": [
            {
              "system": "http://loinc.org",
              "code": "31627-3",
              "display": "Smith extractable nuclear Ab [Presence] in Serum"
            }
          ]
        },
        "subject": {
          "reference": "Patient/NNJ9186"
        },
        "effectiveDateTime": "2021-07-19T15:35:00+00:00",
        "performer": [
          {
            "reference": "PractitionerRole/4a8b40d1-ddf3-48a3-8e07-b03d3fd56eda"
          }
        ],
        "valueString": "Negative",
        "referenceRange": [
          {
            "text": "NA"
          }
        ]
      }
    },
    {
      "fullUrl": "https://terminz.azurewebsites.net/fhir/Observation/fe992b5b-3ea6-4db6-9402-ecde45f14879",
      "resource": {
        "resourceType": "Observation",
        "id": "fe992b5b-3ea6-4db6-9402-ecde45f14879",
        "status": "final",
        "category": [
          {
            "coding": [
              {
                "system": "http://terminology.hl7.org/CodeSystem/observation-category",
                "code": "laboratory"
              }
            ]
          }
        ],
        "code": {
          "coding": [
            {
              "system": "http://loinc.org",
              "code": "8091-1",
              "display": "Ribonucleoprotein extractable nuclear Ab [Presence] in Serum"
            }
          ]
        },
        "subject": {
          "reference": "Patient/NNJ9186"
        },
        "effectiveDateTime": "2021-07-19T15:35:00+00:00",
        "performer": [
          {
            "reference": "PractitionerRole/4a8b40d1-ddf3-48a3-8e07-b03d3fd56eda"
          }
        ],
        "valueString": "Negative",
        "referenceRange": [
          {
            "text": "NA"
          }
        ]
      }
    },
    {
      "fullUrl": "https://terminz.azurewebsites.net/fhir/Observation/4bc7dfe7-a1f0-45bc-bd76-729a50181bf2",
      "resource": {
        "resourceType": "Observation",
        "id": "4bc7dfe7-a1f0-45bc-bd76-729a50181bf2",
        "status": "final",
        "category": [
          {
            "coding": [
              {
                "system": "http://terminology.hl7.org/CodeSystem/observation-category",
                "code": "laboratory"
              }
            ]
          }
        ],
        "code": {
          "coding": [
            {
              "system": "http://loinc.org",
              "code": "8092-9",
              "display": "SCL-70 extractable nuclear Ab [Presence] in Serum"
            }
          ]
        },
        "subject": {
          "reference": "Patient/NNJ9186"
        },
        "effectiveDateTime": "2021-07-19T15:35:00+00:00",
        "performer": [
          {
            "reference": "PractitionerRole/4a8b40d1-ddf3-48a3-8e07-b03d3fd56eda"
          }
        ],
        "valueString": "Negative",
        "referenceRange": [
          {
            "text": "NA"
          }
        ]
      }
    },
    {
      "fullUrl": "https://terminz.azurewebsites.net/fhir/PractitionerRole/4a8b40d1-ddf3-48a3-8e07-b03d3fd56eda",
      "resource": {
        "resourceType": "PractitionerRole",
        "id": "4a8b40d1-ddf3-48a3-8e07-b03d3fd56eda",
        "code": [
          {
            "coding": [
              {
                "system": "http://snomed.info/sct",
                "code": "81464008",
                "display": "Clinical pathologist"
              }
            ]
          }
        ]
      }
    },
    {
      "fullUrl": "https://terminz.azurewebsites.net/fhir/PractitionerRole/d72d0d4c-8dc3-4568-9b4d-f09bc571df77",
      "resource": {
        "resourceType": "PractitionerRole",
        "id": "d72d0d4c-8dc3-4568-9b4d-f09bc571df77",
        "code": [
          {
            "coding": [
              {
                "system": "http://snomed.info/sct",
                "code": "66862007",
                "display": "Radiologist"
              }
            ]
          }
        ]
      }
    }
  ]
}